{
  "resourceType": "Bundle",
  "id": "Russell-Jamie-Henderson-Jr-6502-Encounter-4330",
  "type": "transaction",
  "entry": [
    {
      "fullUrl": "http://localhost:8080/cqf-ruler/baseDstu3/Encounter/Encounter-4330",
      "resource": {
        "resourceType": "Encounter",
        "id": "Encounter-4330",
        "meta": {
          "profile": [
            "http://hl7.org/fhir/us/hedis/StructureDefinition/hedis-encounter"
          ]
        },
        "status": "finished",
        "class": {
          "system": "http://hl7.org/fhir/encounter-class",
          "code": "outpatient",
          "display": "Outpatient"
        },
        "type": [
          {
            "coding": [
              {
                "system": "http://www.ama-assn.org/go/cpt",
                "code": "98962",
                "display": "SELF-MGMT EDUC/TRAIN 5-8 PT"
              }
            ]
          }
        ],
        "subject": {
          "reference": "Patient/Patient-6502",
          "display": "Russell Jamie Henderson Jr"
        },
        "participant": [
          {
            "period": {
              "start": "2017-09-22T01:00:00-04:00",
              "end": "2017-09-22T01:00:00-04:00"
            },
            "individual": {
              "reference": "Practitioner/Practitioner-2519",
              "display": "Stanley Jason Garrett MD"
            }
          }
        ],
        "period": {
          "start": "2017-09-22T01:00:00-04:00",
          "end": "2017-09-22T01:00:00-04:00"
        },
        "reason": [
          {
            "coding": [
              {
                "system": "http://snomed.info/sct",
                "code": "310495003",
                "display": "Mild depression (disorder)"
              }
            ]
          }
        ],
        "location": [
          {
            "location": {
              "reference": "Location/Location-1104",
              "display": "Bay Area Family Practice"
            }
          }
        ],
        "serviceProvider": {
          "reference": "Organization/Organization-1104",
          "display": "Bay Area Family Practice"
        }
      },
      "request": {
        "method": "PUT",
        "url": "http://localhost:8080/cqf-ruler/baseDstu3/Encounter/Encounter-4330"
      }
    },
    {
      "fullUrl": "http://localhost:8080/cqf-ruler/baseDstu3/Procedure/Procedure-690983",
      "resource": {
        "resourceType": "Procedure",
        "id": "Procedure-690983",
        "meta": {
          "profile": [
            "http://hl7.org/fhir/us/hedis/StructureDefinition/hedis-procedure"
          ]
        },
        "status": "completed",
        "code": {
          "coding": [
            {
              "system": "http://test",
              "code": "2.16.840.1.113883.3.67.1.101.11.723",
              "display": "2.16.840.1.113883.3.67.1.101.11.723"
            }
          ]
        },
        "subject": {
          "reference": "Patient/Patient-6502",
          "display": "Russell Jamie Henderson Jr"
        },
        "context": {
          "reference": "Encounter/Encounter-4330",
          "display": "DRR_Encounter"
        },
        "performedPeriod": {
          "start": "2017-09-22T01:00:00-04:00",
          "end": "2017-09-22T01:00:00-04:00"
        },
        "performer": [
          {
            "actor": {
              "reference": "Practitioner/Practitioner-2519",
              "display": "Stanley Jason Garrett MD"
            }
          }
        ],
        "location": {
          "reference": "Location/Location-1104",
          "display": "Bay Area Family Practice"
        }
      },
      "request": {
        "method": "PUT",
        "url": "http://localhost:8080/cqf-ruler/baseDstu3/Procedure/Procedure-690983"
      }
    },
    {
      "fullUrl": "http://localhost:8080/cqf-ruler/baseDstu3/Observation/Observation-690984",
      "resource": {
        "resourceType": "Observation",
        "id": "Observation-690984",
        "meta": {
          "profile": [
            "http://hl7.org/fhir/us/hedis/StructureDefinition/hedis-observation"
          ]
        },
        "status": "final",
        "code": {
          "coding": [
            {
              "system": "http://cqframework.info/codesystem/placeholder",
              "code": "00009",
              "display": "PHQ-9 Modified Score"
            }
          ]
        },
        "subject": {
          "reference": "Patient/Patient-6502",
          "display": "Russell Jamie Henderson Jr"
        },
        "context": {
          "reference": "Encounter/Encounter-4330",
          "display": "DRR_Encounter"
        },
        "effectiveDateTime": "2017-09-22T01:00:00-04:00",
        "performer": [
          {
            "reference": "Practitioner/Practitioner-2519",
            "display": "Stanley Jason Garrett MD"
          }
        ],
        "valueQuantity": {
          "value": 0.0,
          "unit": "score"
        }
      },
      "request": {
        "method": "PUT",
        "url": "http://localhost:8080/cqf-ruler/baseDstu3/Observation/Observation-690984"
      }
    },
    {
      "fullUrl": "http://localhost:8080/cqf-ruler/baseDstu3/DiagnosticReport/DiagnosticReport-690985",
      "resource": {
        "resourceType": "DiagnosticReport",
        "id": "DiagnosticReport-690985",
        "meta": {
          "profile": [
            "http://hl7.org/fhir/us/hedis/StructureDefinition/hedis-diagnosticreport"
          ]
        },
        "status": "final",
        "category": {
          "coding": [
            {
              "system": "http://hl7.org/fhir/ValueSet/diagnostic-service-sections",
              "code": "OTH",
              "display": "Other"
            }
          ]
        },
        "code": {
          "coding": [
            {
              "system": "http://snomed.info/sct",
              "code": "2618002",
              "display": "Chronic recurrent major depressive disorder (disorder)"
            }
          ]
        },
        "subject": {
          "reference": "Patient/Patient-6502",
          "display": "Russell Jamie Henderson Jr"
        },
        "context": {
          "reference": "Encounter/Encounter-4330",
          "display": "DRR_Encounter"
        },
        "effectivePeriod": {
          "start": "2017-09-22T01:00:00-04:00",
          "end": "2017-09-22T01:00:00-04:00"
        },
        "issued": "2017-09-22T01:00:00.000-04:00"
      },
      "request": {
        "method": "PUT",
        "url": "http://localhost:8080/cqf-ruler/baseDstu3/DiagnosticReport/DiagnosticReport-690985"
      }
    },
    {
      "fullUrl": "http://localhost:8080/cqf-ruler/baseDstu3/Observation/Observation-690988",
      "resource": {
        "resourceType": "Observation",
        "id": "Observation-690988",
        "status": "final",
        "code": {
          "coding": [
            {
              "system": "http://loinc.org",
              "code": "8302-2",
              "display": "Height"
            }
          ]
        },
        "subject": {
          "reference": "Patient/Patient-6502",
          "display": "Russell Jamie Henderson Jr"
        },
        "context": {
          "reference": "Encounter/Encounter-4330",
          "display": "DRR_Encounter"
        },
        "effectiveDateTime": "2017-09-22T01:00:00-04:00",
        "performer": [
          {
            "reference": "Practitioner/Practitioner-2519",
            "display": "Stanley Jason Garrett MD"
          }
        ],
        "valueQuantity": {
          "value": 172.0,
          "unit": "cm"
        }
      },
      "request": {
        "method": "PUT",
        "url": "http://localhost:8080/cqf-ruler/baseDstu3/Observation/Observation-690988"
      }
    },
    {
      "fullUrl": "http://localhost:8080/cqf-ruler/baseDstu3/Observation/Observation-690989",
      "resource": {
        "resourceType": "Observation",
        "id": "Observation-690989",
        "status": "final",
        "code": {
          "coding": [
            {
              "system": "http://loinc.org",
              "code": "29463-7",
              "display": "Weight"
            }
          ]
        },
        "subject": {
          "reference": "Patient/Patient-6502",
          "display": "Russell Jamie Henderson Jr"
        },
        "context": {
          "reference": "Encounter/Encounter-4330",
          "display": "DRR_Encounter"
        },
        "effectiveDateTime": "2017-09-22T01:00:00-04:00",
        "performer": [
          {
            "reference": "Practitioner/Practitioner-2519",
            "display": "Stanley Jason Garrett MD"
          }
        ],
        "valueQuantity": {
          "value": 87.84606487233214,
          "unit": "kg"
        }
      },
      "request": {
        "method": "PUT",
        "url": "http://localhost:8080/cqf-ruler/baseDstu3/Observation/Observation-690989"
      }
    },
    {
      "fullUrl": "http://localhost:8080/cqf-ruler/baseDstu3/Observation/Observation-690990",
      "resource": {
        "resourceType": "Observation",
        "id": "Observation-690990",
        "status": "final",
        "code": {
          "coding": [
            {
              "system": "http://loinc.org",
              "code": "39156-5",
              "display": "BMI"
            }
          ]
        },
        "subject": {
          "reference": "Patient/Patient-6502",
          "display": "Russell Jamie Henderson Jr"
        },
        "context": {
          "reference": "Encounter/Encounter-4330",
          "display": "DRR_Encounter"
        },
        "effectiveDateTime": "2017-09-22T01:00:00-04:00",
        "performer": [
          {
            "reference": "Practitioner/Practitioner-2519",
            "display": "Stanley Jason Garrett MD"
          }
        ],
        "valueQuantity": {
          "value": 29.693775308387014,
          "unit": "kg/m2"
        }
      },
      "request": {
        "method": "PUT",
        "url": "http://localhost:8080/cqf-ruler/baseDstu3/Observation/Observation-690990"
      }
    },
    {
      "fullUrl": "http://localhost:8080/cqf-ruler/baseDstu3/Observation/Observation-690991",
      "resource": {
        "resourceType": "Observation",
        "id": "Observation-690991",
        "status": "final",
        "code": {
          "coding": [
            {
              "system": "http://loinc.org",
              "code": "8310-5",
              "display": "Temperature"
            }
          ]
        },
        "subject": {
          "reference": "Patient/Patient-6502",
          "display": "Russell Jamie Henderson Jr"
        },
        "context": {
          "reference": "Encounter/Encounter-4330",
          "display": "DRR_Encounter"
        },
        "effectiveDateTime": "2017-09-22T01:00:00-04:00",
        "performer": [
          {
            "reference": "Practitioner/Practitioner-2519",
            "display": "Stanley Jason Garrett MD"
          }
        ],
        "valueQuantity": {
          "value": 37.0,
          "unit": "C"
        }
      },
      "request": {
        "method": "PUT",
        "url": "http://localhost:8080/cqf-ruler/baseDstu3/Observation/Observation-690991"
      }
    },
    {
      "fullUrl": "http://localhost:8080/cqf-ruler/baseDstu3/Observation/Observation-690992",
      "resource": {
        "resourceType": "Observation",
        "id": "Observation-690992",
        "status": "final",
        "code": {
          "coding": [
            {
              "system": "http://loinc.org",
              "code": "8459-0",
              "display": "Systolic Blood Pressure"
            }
          ]
        },
        "subject": {
          "reference": "Patient/Patient-6502",
          "display": "Russell Jamie Henderson Jr"
        },
        "context": {
          "reference": "Encounter/Encounter-4330",
          "display": "DRR_Encounter"
        },
        "effectiveDateTime": "2017-09-22T01:00:00-04:00",
        "performer": [
          {
            "reference": "Practitioner/Practitioner-2519",
            "display": "Stanley Jason Garrett MD"
          }
        ],
        "valueQuantity": {
          "value": 149.13488010653856,
          "unit": "mmHg"
        }
      },
      "request": {
        "method": "PUT",
        "url": "http://localhost:8080/cqf-ruler/baseDstu3/Observation/Observation-690992"
      }
    },
    {
      "fullUrl": "http://localhost:8080/cqf-ruler/baseDstu3/Observation/Observation-690993",
      "resource": {
        "resourceType": "Observation",
        "id": "Observation-690993",
        "status": "final",
        "code": {
          "coding": [
            {
              "system": "http://loinc.org",
              "code": "8453-3",
              "display": "Diastolic Blood Pressure"
            }
          ]
        },
        "subject": {
          "reference": "Patient/Patient-6502",
          "display": "Russell Jamie Henderson Jr"
        },
        "context": {
          "reference": "Encounter/Encounter-4330",
          "display": "DRR_Encounter"
        },
        "effectiveDateTime": "2017-09-22T01:00:00-04:00",
        "performer": [
          {
            "reference": "Practitioner/Practitioner-2519",
            "display": "Stanley Jason Garrett MD"
          }
        ],
        "valueQuantity": {
          "value": 87.84816156990199,
          "unit": "mmHg"
        }
      },
      "request": {
        "method": "PUT",
        "url": "http://localhost:8080/cqf-ruler/baseDstu3/Observation/Observation-690993"
      }
    },
    {
      "fullUrl": "http://localhost:8080/cqf-ruler/baseDstu3/DiagnosticReport/DiagnosticReport-690987",
      "resource": {
        "resourceType": "DiagnosticReport",
        "id": "DiagnosticReport-690987",
        "meta": {
          "profile": [
            "http://hl7.org/fhir/us/hedis/StructureDefinition/hedis-diagnosticreport"
          ]
        },
        "status": "final",
        "category": {
          "coding": [
            {
              "system": "http://hl7.org/fhir/ValueSet/diagnostic-service-sections",
              "code": "LAB",
              "display": "Laboratory"
            }
          ]
        },
        "code": {
          "coding": [
            {
              "system": "http://loinc.org",
              "code": "8716-3",
              "display": "Vital Signs Panel"
            }
          ]
        },
        "subject": {
          "reference": "Patient/Patient-6502",
          "display": "Russell Jamie Henderson Jr"
        },
        "context": {
          "reference": "Encounter/Encounter-4330",
          "display": "DRR_Encounter"
        },
        "effectivePeriod": {
          "start": "2017-09-22T01:00:00-04:00",
          "end": "2017-09-22T01:00:00-04:00"
        },
        "issued": "2017-09-22T01:00:00.000-04:00",
        "result": [
          {
            "reference": "Observation/Observation-690988",
            "display": "Height"
          },
          {
            "reference": "Observation/Observation-690989",
            "display": "Weight"
          },
          {
            "reference": "Observation/Observation-690990",
            "display": "BMI"
          },
          {
            "reference": "Observation/Observation-690991",
            "display": "Temperature"
          },
          {
            "reference": "Observation/Observation-690992",
            "display": "Systolic Blood Pressure"
          },
          {
            "reference": "Observation/Observation-690993",
            "display": "Diastolic Blood Pressure"
          }
        ]
      },
      "request": {
        "method": "PUT",
        "url": "http://localhost:8080/cqf-ruler/baseDstu3/DiagnosticReport/DiagnosticReport-690987"
      }
    }
  ]
}