{
  "resourceType": "Bundle",
  "id": "Russell-Jamie-Henderson-Jr-6502-Encounter-249",
  "type": "transaction",
  "entry": [
    {
      "fullUrl": "http://localhost:8080/cqf-ruler/baseDstu3Encounter/Encounter-249",
      "resource": {
        "resourceType": "Encounter",
        "id": "Encounter-249",
        "status": "finished",
        "class": {
          "system": "http://hl7.org/fhir/encounter-class",
          "code": "outpatient",
          "display": "Inpatient"
        },
        "subject": {
          "reference": "Patient/Patient-6502",
          "display": "Russell Jamie Henderson Jr"
        },
        "participant": [
          {
            "period": {
              "start": "1989-01-15T00:00:00-05:00",
              "end": "1989-01-15T00:00:00-05:00"
            },
            "individual": {
              "reference": "Practitioner/Practitioner-2519",
              "display": "Stanley Jason Garrett MD"
            }
          }
        ],
        "period": {
          "start": "1989-01-15T00:00:00-05:00",
          "end": "1989-01-15T00:00:00-05:00"
        },
        "location": [
          {
            "location": {
              "reference": "Location/Location-1104",
              "display": "Bay Area Family Practice"
            }
          }
        ],
        "serviceProvider": {
          "reference": "Organization/Organization-1104",
          "display": "Bay Area Family Practice"
        }
      },
      "request": {
        "method": "PUT",
        "url": "http://localhost:8080/cqf-ruler/baseDstu3Encounter/Encounter-249"
      }
    },
    {
      "fullUrl": "http://localhost:8080/cqf-ruler/baseDstu3Immunization/Immunization-1648",
      "resource": {
        "resourceType": "Immunization",
        "id": "Immunization-1648",
        "status": "completed",
        "notGiven": false,
        "vaccineCode": {
          "coding": [
            {
              "system": "http://hl7.org/fhir/sid/cvx",
              "code": "140",
              "display": "Influenza, seasonal, injectable, preservative free"
            }
          ]
        },
        "patient": {
          "reference": "Patient/Patient-6502",
          "display": "Russell Jamie Henderson Jr"
        },
        "date": "1989-01-15T00:00:00-05:00",
        "primarySource": true,
        "location": {
          "reference": "Location/Location-1104",
          "display": "Bay Area Family Practice"
        },
        "practitioner": [
          {
            "actor": {
              "reference": "Practitioner/Practitioner-2519",
              "display": "Stanley Jason Garrett MD"
            }
          }
        ]
      },
      "request": {
        "method": "PUT",
        "url": "http://localhost:8080/cqf-ruler/baseDstu3Immunization/Immunization-1648"
      }
    },
    {
      "fullUrl": "http://localhost:8080/cqf-ruler/baseDstu3Immunization/Immunization-1649",
      "resource": {
        "resourceType": "Immunization",
        "id": "Immunization-1649",
        "status": "completed",
        "notGiven": false,
        "vaccineCode": {
          "coding": [
            {
              "system": "http://hl7.org/fhir/sid/cvx",
              "code": "114",
              "display": "meningococcal MCV4P"
            }
          ]
        },
        "patient": {
          "reference": "Patient/Patient-6502",
          "display": "Russell Jamie Henderson Jr"
        },
        "date": "1989-01-15T00:00:00-05:00",
        "primarySource": true,
        "location": {
          "reference": "Location/Location-1104",
          "display": "Bay Area Family Practice"
        },
        "practitioner": [
          {
            "actor": {
              "reference": "Practitioner/Practitioner-2519",
              "display": "Stanley Jason Garrett MD"
            }
          }
        ]
      },
      "request": {
        "method": "PUT",
        "url": "http://localhost:8080/cqf-ruler/baseDstu3Immunization/Immunization-1649"
      }
    },
    {
      "fullUrl": "http://localhost:8080/cqf-ruler/baseDstu3Observation/Observation-19123",
      "resource": {
        "resourceType": "Observation",
        "id": "Observation-19123",
        "status": "final",
        "code": {
          "coding": [
            {
              "system": "http://loinc.org",
              "code": "8302-2",
              "display": "Height"
            }
          ]
        },
        "subject": {
          "reference": "Patient/Patient-6502",
          "display": "Russell Jamie Henderson Jr"
        },
        "context": {
          "reference": "Encounter/Encounter-249",
          "display": "Wellness Visit"
        },
        "effectiveDateTime": "1989-01-15T00:00:00-05:00",
        "performer": [
          {
            "reference": "Practitioner/Practitioner-2519",
            "display": "Stanley Jason Garrett MD"
          }
        ],
        "valueQuantity": {
          "value": 171.0,
          "unit": "cm"
        }
      },
      "request": {
        "method": "PUT",
        "url": "http://localhost:8080/cqf-ruler/baseDstu3Observation/Observation-19123"
      }
    },
    {
      "fullUrl": "http://localhost:8080/cqf-ruler/baseDstu3Observation/Observation-19124",
      "resource": {
        "resourceType": "Observation",
        "id": "Observation-19124",
        "status": "final",
        "code": {
          "coding": [
            {
              "system": "http://loinc.org",
              "code": "29463-7",
              "display": "Weight"
            }
          ]
        },
        "subject": {
          "reference": "Patient/Patient-6502",
          "display": "Russell Jamie Henderson Jr"
        },
        "context": {
          "reference": "Encounter/Encounter-249",
          "display": "Wellness Visit"
        },
        "effectiveDateTime": "1989-01-15T00:00:00-05:00",
        "performer": [
          {
            "reference": "Practitioner/Practitioner-2519",
            "display": "Stanley Jason Garrett MD"
          }
        ],
        "valueQuantity": {
          "value": 73.38446411751318,
          "unit": "kg"
        }
      },
      "request": {
        "method": "PUT",
        "url": "http://localhost:8080/cqf-ruler/baseDstu3Observation/Observation-19124"
      }
    },
    {
      "fullUrl": "http://localhost:8080/cqf-ruler/baseDstu3Observation/Observation-19125",
      "resource": {
        "resourceType": "Observation",
        "id": "Observation-19125",
        "status": "final",
        "code": {
          "coding": [
            {
              "system": "http://loinc.org",
              "code": "39156-5",
              "display": "BMI"
            }
          ]
        },
        "subject": {
          "reference": "Patient/Patient-6502",
          "display": "Russell Jamie Henderson Jr"
        },
        "context": {
          "reference": "Encounter/Encounter-249",
          "display": "Wellness Visit"
        },
        "effectiveDateTime": "1989-01-15T00:00:00-05:00",
        "performer": [
          {
            "reference": "Practitioner/Practitioner-2519",
            "display": "Stanley Jason Garrett MD"
          }
        ],
        "valueQuantity": {
          "value": 25.0964276589423,
          "unit": "kg/m2"
        }
      },
      "request": {
        "method": "PUT",
        "url": "http://localhost:8080/cqf-ruler/baseDstu3Observation/Observation-19125"
      }
    },
    {
      "fullUrl": "http://localhost:8080/cqf-ruler/baseDstu3Observation/Observation-19126",
      "resource": {
        "resourceType": "Observation",
        "id": "Observation-19126",
        "status": "final",
        "code": {
          "coding": [
            {
              "system": "http://loinc.org",
              "code": "8310-5",
              "display": "Temperature"
            }
          ]
        },
        "subject": {
          "reference": "Patient/Patient-6502",
          "display": "Russell Jamie Henderson Jr"
        },
        "context": {
          "reference": "Encounter/Encounter-249",
          "display": "Wellness Visit"
        },
        "effectiveDateTime": "1989-01-15T00:00:00-05:00",
        "performer": [
          {
            "reference": "Practitioner/Practitioner-2519",
            "display": "Stanley Jason Garrett MD"
          }
        ],
        "valueQuantity": {
          "value": 37.0,
          "unit": "C"
        }
      },
      "request": {
        "method": "PUT",
        "url": "http://localhost:8080/cqf-ruler/baseDstu3Observation/Observation-19126"
      }
    },
    {
      "fullUrl": "http://localhost:8080/cqf-ruler/baseDstu3Observation/Observation-19127",
      "resource": {
        "resourceType": "Observation",
        "id": "Observation-19127",
        "status": "final",
        "code": {
          "coding": [
            {
              "system": "http://loinc.org",
              "code": "8459-0",
              "display": "Systolic Blood Pressure"
            }
          ]
        },
        "subject": {
          "reference": "Patient/Patient-6502",
          "display": "Russell Jamie Henderson Jr"
        },
        "context": {
          "reference": "Encounter/Encounter-249",
          "display": "Wellness Visit"
        },
        "effectiveDateTime": "1989-01-15T00:00:00-05:00",
        "performer": [
          {
            "reference": "Practitioner/Practitioner-2519",
            "display": "Stanley Jason Garrett MD"
          }
        ],
        "valueQuantity": {
          "value": 115.40747966438799,
          "unit": "mmHg"
        }
      },
      "request": {
        "method": "PUT",
        "url": "http://localhost:8080/cqf-ruler/baseDstu3Observation/Observation-19127"
      }
    },
    {
      "fullUrl": "http://localhost:8080/cqf-ruler/baseDstu3Observation/Observation-19128",
      "resource": {
        "resourceType": "Observation",
        "id": "Observation-19128",
        "status": "final",
        "code": {
          "coding": [
            {
              "system": "http://loinc.org",
              "code": "8453-3",
              "display": "Diastolic Blood Pressure"
            }
          ]
        },
        "subject": {
          "reference": "Patient/Patient-6502",
          "display": "Russell Jamie Henderson Jr"
        },
        "context": {
          "reference": "Encounter/Encounter-249",
          "display": "Wellness Visit"
        },
        "effectiveDateTime": "1989-01-15T00:00:00-05:00",
        "performer": [
          {
            "reference": "Practitioner/Practitioner-2519",
            "display": "Stanley Jason Garrett MD"
          }
        ],
        "valueQuantity": {
          "value": 74.48744558915642,
          "unit": "mmHg"
        }
      },
      "request": {
        "method": "PUT",
        "url": "http://localhost:8080/cqf-ruler/baseDstu3Observation/Observation-19128"
      }
    },
    {
      "fullUrl": "http://localhost:8080/cqf-ruler/baseDstu3DiagnosticReport/DiagnosticReport-19122",
      "resource": {
        "resourceType": "DiagnosticReport",
        "id": "DiagnosticReport-19122",
        "status": "final",
        "code": {
          "coding": [
            {
              "system": "http://loinc.org",
              "code": "8716-3",
              "display": "Vital Signs Panel"
            }
          ]
        },
        "subject": {
          "reference": "Patient/Patient-6502",
          "display": "Russell Jamie Henderson Jr"
        },
        "context": {
          "reference": "Encounter/Encounter-249",
          "display": "Wellness Visit"
        },
        "effectivePeriod": {
          "start": "1989-01-15T00:00:00-05:00",
          "end": "1989-01-15T00:00:00-05:00"
        },
        "issued": "1989-01-15T00:00:00.000-05:00",
        "result": [
          {
            "reference": "Observation/Observation-19123",
            "display": "Height"
          },
          {
            "reference": "Observation/Observation-19124",
            "display": "Weight"
          },
          {
            "reference": "Observation/Observation-19125",
            "display": "BMI"
          },
          {
            "reference": "Observation/Observation-19126",
            "display": "Temperature"
          },
          {
            "reference": "Observation/Observation-19127",
            "display": "Systolic Blood Pressure"
          },
          {
            "reference": "Observation/Observation-19128",
            "display": "Diastolic Blood Pressure"
          }
        ]
      },
      "request": {
        "method": "PUT",
        "url": "http://localhost:8080/cqf-ruler/baseDstu3DiagnosticReport/DiagnosticReport-19122"
      }
    }
  ]
}