{
  "resourceType": "Bundle",
  "id": "Lloyd-Cardenas-Villegas-6537-Encounter-3154",
  "type": "transaction",
  "entry": [
    {
      "fullUrl": "http://localhost:8080/cqf-ruler/baseDstu3/Encounter/Encounter-3154",
      "resource": {
        "resourceType": "Encounter",
        "id": "Encounter-3154",
        "meta": {
          "profile": [
            "http://hl7.org/fhir/us/hedis/StructureDefinition/hedis-encounter"
          ]
        },
        "status": "finished",
        "class": {
          "system": "http://hl7.org/fhir/encounter-class",
          "code": "outpatient",
          "display": "Outpatient"
        },
        "subject": {
          "reference": "Patient/Patient-6537",
          "display": "Lloyd Cardenas Villegas"
        },
        "participant": [
          {
            "period": {
              "start": "2013-11-22T00:00:00-05:00",
              "end": "2013-11-22T00:00:00-05:00"
            },
            "individual": {
              "reference": "Practitioner/Practitioner-2534",
              "display": "Pearl Rita Dawson MD"
            }
          }
        ],
        "period": {
          "start": "2013-11-22T00:00:00-05:00",
          "end": "2013-11-22T00:00:00-05:00"
        },
        "location": [
          {
            "location": {
              "reference": "Location/Location-1101",
              "display": "McKinley Health Center"
            }
          }
        ],
        "serviceProvider": {
          "reference": "Organization/Organization-1101",
          "display": "McKinley Health Center"
        }
      },
      "request": {
        "method": "PUT",
        "url": "http://localhost:8080/cqf-ruler/baseDstu3/Encounter/Encounter-3154"
      }
    },
    {
      "fullUrl": "http://localhost:8080/cqf-ruler/baseDstu3/Immunization/Immunization-504762",
      "resource": {
        "resourceType": "Immunization",
        "id": "Immunization-504762",
        "status": "completed",
        "notGiven": false,
        "vaccineCode": {
          "coding": [
            {
              "system": "http://hl7.org/fhir/sid/cvx",
              "code": "140",
              "display": "Influenza, seasonal, injectable, preservative free"
            }
          ]
        },
        "patient": {
          "reference": "Patient/Patient-6537",
          "display": "Lloyd Cardenas Villegas"
        },
        "date": "2013-11-22T00:00:00-05:00",
        "primarySource": true,
        "location": {
          "reference": "Location/Location-1101",
          "display": "McKinley Health Center"
        },
        "practitioner": [
          {
            "actor": {
              "reference": "Practitioner/Practitioner-2534",
              "display": "Pearl Rita Dawson MD"
            }
          }
        ]
      },
      "request": {
        "method": "PUT",
        "url": "http://localhost:8080/cqf-ruler/baseDstu3/Immunization/Immunization-504762"
      }
    },
    {
      "fullUrl": "http://localhost:8080/cqf-ruler/baseDstu3/Procedure/Procedure-588974",
      "resource": {
        "resourceType": "Procedure",
        "id": "Procedure-588974",
        "meta": {
          "profile": [
            "http://hl7.org/fhir/us/hedis/StructureDefinition/hedis-procedure"
          ]
        },
        "status": "completed",
        "code": {
          "coding": [
            {
              "system": "http://snomed.info/sct",
              "code": "713127001",
              "display": "Assessment of alcohol use"
            }
          ]
        },
        "subject": {
          "reference": "Patient/Patient-6537",
          "display": "Lloyd Cardenas Villegas"
        },
        "context": {
          "reference": "Encounter/Encounter-3154",
          "display": "Wellness Visit"
        },
        "performedPeriod": {
          "start": "2013-11-22T00:00:00-05:00",
          "end": "2013-11-22T00:00:00-05:00"
        },
        "performer": [
          {
            "actor": {
              "reference": "Practitioner/Practitioner-2534",
              "display": "Pearl Rita Dawson MD"
            }
          }
        ],
        "location": {
          "reference": "Location/Location-1101",
          "display": "McKinley Health Center"
        }
      },
      "request": {
        "method": "PUT",
        "url": "http://localhost:8080/cqf-ruler/baseDstu3/Procedure/Procedure-588974"
      }
    },
    {
      "fullUrl": "http://localhost:8080/cqf-ruler/baseDstu3/Observation/Observation-588975",
      "resource": {
        "resourceType": "Observation",
        "id": "Observation-588975",
        "meta": {
          "profile": [
            "http://hl7.org/fhir/us/hedis/StructureDefinition/hedis-observation"
          ]
        },
        "status": "final",
        "code": {
          "coding": [
            {
              "system": "TEST",
              "code": "2.16.840.1.113883.3.464.1003.106.11.1035",
              "display": "Five or more drinks per day"
            }
          ]
        },
        "subject": {
          "reference": "Patient/Patient-6537",
          "display": "Lloyd Cardenas Villegas"
        },
        "context": {
          "reference": "Encounter/Encounter-3154",
          "display": "Wellness Visit"
        },
        "effectiveDateTime": "2013-11-22T00:00:00-05:00",
        "performer": [
          {
            "reference": "Practitioner/Practitioner-2534",
            "display": "Pearl Rita Dawson MD"
          }
        ],
        "valueQuantity": {
          "value": 8.0,
          "unit": "score"
        }
      },
      "request": {
        "method": "PUT",
        "url": "http://localhost:8080/cqf-ruler/baseDstu3/Observation/Observation-588975"
      }
    },
    {
      "fullUrl": "http://localhost:8080/cqf-ruler/baseDstu3/Observation/Observation-588976",
      "resource": {
        "resourceType": "Observation",
        "id": "Observation-588976",
        "meta": {
          "profile": [
            "http://hl7.org/fhir/us/hedis/StructureDefinition/hedis-observation"
          ]
        },
        "status": "final",
        "code": {
          "coding": [
            {
              "system": "TEST",
              "code": "2.16.840.1.113883.3.464.1003.107.12.1022",
              "display": "AUDIT-C Total Score (in points)"
            }
          ]
        },
        "subject": {
          "reference": "Patient/Patient-6537",
          "display": "Lloyd Cardenas Villegas"
        },
        "context": {
          "reference": "Encounter/Encounter-3154",
          "display": "Wellness Visit"
        },
        "effectiveDateTime": "2013-11-22T00:00:00-05:00",
        "performer": [
          {
            "reference": "Practitioner/Practitioner-2534",
            "display": "Pearl Rita Dawson MD"
          }
        ],
        "valueQuantity": {
          "value": 8.0,
          "unit": "score"
        }
      },
      "request": {
        "method": "PUT",
        "url": "http://localhost:8080/cqf-ruler/baseDstu3/Observation/Observation-588976"
      }
    },
    {
      "fullUrl": "http://localhost:8080/cqf-ruler/baseDstu3/Condition/Condition-588977",
      "resource": {
        "resourceType": "Condition",
        "id": "Condition-588977",
        "meta": {
          "profile": [
            "http://hl7.org/fhir/us/hedis/StructureDefinition/hedis-condition"
          ]
        },
        "clinicalStatus": "active",
        "verificationStatus": "confirmed",
        "code": {
          "coding": [
            {
              "system": "TEST",
              "code": "2.16.840.1.113883.3.464.1003.106.12.1010",
              "display": "Alcohol abuse or dependenc"
            }
          ]
        },
        "subject": {
          "reference": "Patient/Patient-6537",
          "display": "Lloyd Cardenas Villegas"
        },
        "context": {
          "reference": "Encounter/Encounter-3154",
          "display": "Wellness Visit"
        },
        "onsetDateTime": "2013-11-22T00:00:00-05:00",
        "assertedDate": "2013-11-22T00:00:00-05:00",
        "asserter": {
          "reference": "Practitioner/Practitioner-2534",
          "display": "Pearl Rita Dawson MD"
        }
      },
      "request": {
        "method": "PUT",
        "url": "http://localhost:8080/cqf-ruler/baseDstu3/Condition/Condition-588977"
      }
    },
    {
      "fullUrl": "http://localhost:8080/cqf-ruler/baseDstu3/Observation/Observation-588978",
      "resource": {
        "resourceType": "Observation",
        "id": "Observation-588978",
        "meta": {
          "profile": [
            "http://hl7.org/fhir/us/hedis/StructureDefinition/hedis-observation"
          ]
        },
        "status": "final",
        "code": {
          "coding": [
            {
              "system": "http://loinc.org",
              "code": "8480-6",
              "display": "Systolic blood pressure"
            }
          ]
        },
        "subject": {
          "reference": "Patient/Patient-6537",
          "display": "Lloyd Cardenas Villegas"
        },
        "context": {
          "reference": "Encounter/Encounter-3154",
          "display": "Wellness Visit"
        },
        "effectiveDateTime": "2013-11-22T00:00:00-05:00",
        "performer": [
          {
            "reference": "Practitioner/Practitioner-2534",
            "display": "Pearl Rita Dawson MD"
          }
        ],
        "valueQuantity": {
          "value": 123.04211989902834,
          "unit": "mmHg"
        }
      },
      "request": {
        "method": "PUT",
        "url": "http://localhost:8080/cqf-ruler/baseDstu3/Observation/Observation-588978"
      }
    },
    {
      "fullUrl": "http://localhost:8080/cqf-ruler/baseDstu3/Observation/Observation-588979",
      "resource": {
        "resourceType": "Observation",
        "id": "Observation-588979",
        "meta": {
          "profile": [
            "http://hl7.org/fhir/us/hedis/StructureDefinition/hedis-observation"
          ]
        },
        "status": "final",
        "code": {
          "coding": [
            {
              "system": "http://loinc.org",
              "code": "8462-4",
              "display": "Diastolic blood pressure"
            }
          ]
        },
        "subject": {
          "reference": "Patient/Patient-6537",
          "display": "Lloyd Cardenas Villegas"
        },
        "context": {
          "reference": "Encounter/Encounter-3154",
          "display": "Wellness Visit"
        },
        "effectiveDateTime": "2013-11-22T00:00:00-05:00",
        "performer": [
          {
            "reference": "Practitioner/Practitioner-2534",
            "display": "Pearl Rita Dawson MD"
          }
        ],
        "valueQuantity": {
          "value": 75.01614377733489,
          "unit": "mmHg"
        }
      },
      "request": {
        "method": "PUT",
        "url": "http://localhost:8080/cqf-ruler/baseDstu3/Observation/Observation-588979"
      }
    },
    {
      "fullUrl": "http://localhost:8080/cqf-ruler/baseDstu3/Observation/Observation-588980",
      "resource": {
        "resourceType": "Observation",
        "id": "Observation-588980",
        "meta": {
          "profile": [
            "http://hl7.org/fhir/us/hedis/StructureDefinition/hedis-observation"
          ]
        },
        "status": "final",
        "code": {
          "coding": [
            {
              "system": "http://loinc.org",
              "code": "8302-2",
              "display": "Body Height"
            }
          ]
        },
        "subject": {
          "reference": "Patient/Patient-6537",
          "display": "Lloyd Cardenas Villegas"
        },
        "context": {
          "reference": "Encounter/Encounter-3154",
          "display": "Wellness Visit"
        },
        "effectiveDateTime": "2013-11-22T00:00:00-05:00",
        "performer": [
          {
            "reference": "Practitioner/Practitioner-2534",
            "display": "Pearl Rita Dawson MD"
          }
        ],
        "valueQuantity": {
          "value": 176.8,
          "unit": "cm"
        }
      },
      "request": {
        "method": "PUT",
        "url": "http://localhost:8080/cqf-ruler/baseDstu3/Observation/Observation-588980"
      }
    },
    {
      "fullUrl": "http://localhost:8080/cqf-ruler/baseDstu3/Observation/Observation-588981",
      "resource": {
        "resourceType": "Observation",
        "id": "Observation-588981",
        "meta": {
          "profile": [
            "http://hl7.org/fhir/us/hedis/StructureDefinition/hedis-observation"
          ]
        },
        "status": "final",
        "code": {
          "coding": [
            {
              "system": "http://loinc.org",
              "code": "29463-7",
              "display": "Body Weight"
            }
          ]
        },
        "subject": {
          "reference": "Patient/Patient-6537",
          "display": "Lloyd Cardenas Villegas"
        },
        "context": {
          "reference": "Encounter/Encounter-3154",
          "display": "Wellness Visit"
        },
        "effectiveDateTime": "2013-11-22T00:00:00-05:00",
        "performer": [
          {
            "reference": "Practitioner/Practitioner-2534",
            "display": "Pearl Rita Dawson MD"
          }
        ],
        "valueQuantity": {
          "value": 96.0016875070049,
          "unit": "kg"
        }
      },
      "request": {
        "method": "PUT",
        "url": "http://localhost:8080/cqf-ruler/baseDstu3/Observation/Observation-588981"
      }
    },
    {
      "fullUrl": "http://localhost:8080/cqf-ruler/baseDstu3/Observation/Observation-588982",
      "resource": {
        "resourceType": "Observation",
        "id": "Observation-588982",
        "meta": {
          "profile": [
            "http://hl7.org/fhir/us/hedis/StructureDefinition/hedis-observation"
          ]
        },
        "status": "final",
        "code": {
          "coding": [
            {
              "system": "http://loinc.org",
              "code": "39156-5",
              "display": "Body Mass Index"
            }
          ]
        },
        "subject": {
          "reference": "Patient/Patient-6537",
          "display": "Lloyd Cardenas Villegas"
        },
        "context": {
          "reference": "Encounter/Encounter-3154",
          "display": "Wellness Visit"
        },
        "effectiveDateTime": "2013-11-22T00:00:00-05:00",
        "performer": [
          {
            "reference": "Practitioner/Practitioner-2534",
            "display": "Pearl Rita Dawson MD"
          }
        ],
        "valueQuantity": {
          "value": 30.71244174560209,
          "unit": "kg/m2"
        }
      },
      "request": {
        "method": "PUT",
        "url": "http://localhost:8080/cqf-ruler/baseDstu3/Observation/Observation-588982"
      }
    },
    {
      "fullUrl": "http://localhost:8080/cqf-ruler/baseDstu3/Observation/Observation-588985",
      "resource": {
        "resourceType": "Observation",
        "id": "Observation-588985",
        "meta": {
          "profile": [
            "http://hl7.org/fhir/us/hedis/StructureDefinition/hedis-observation"
          ]
        },
        "status": "final",
        "code": {
          "coding": [
            {
              "system": "http://loinc.org",
              "code": "55284-4",
              "display": "Blood Pressure"
            }
          ]
        },
        "subject": {
          "reference": "Patient/Patient-6537",
          "display": "Lloyd Cardenas Villegas"
        },
        "context": {
          "reference": "Encounter/Encounter-3154",
          "display": "Wellness Visit"
        },
        "effectiveDateTime": "2013-11-22T00:00:00-05:00",
        "valueQuantity": {
          "value": 75.01614377733489,
          "unit": "mmHg"
        },
        "component": [
          {
            "code": {
              "coding": [
                {
                  "system": "http://loinc.org",
                  "code": "8480-6",
                  "display": "Systolic Blood Pressure"
                }
              ]
            }
          },
          {
            "code": {
              "coding": [
                {
                  "system": "http://loinc.org",
                  "code": "8462-4",
                  "display": "Diastolic Blood Pressure"
                }
              ]
            }
          }
        ]
      },
      "request": {
        "method": "PUT",
        "url": "http://localhost:8080/cqf-ruler/baseDstu3/Observation/Observation-588985"
      }
    },
    {
      "fullUrl": "http://localhost:8080/cqf-ruler/baseDstu3/Observation/Observation-588986",
      "resource": {
        "resourceType": "Observation",
        "id": "Observation-588986",
        "meta": {
          "profile": [
            "http://hl7.org/fhir/us/hedis/StructureDefinition/hedis-observation"
          ]
        },
        "status": "final",
        "code": {
          "coding": [
            {
              "system": "http://loinc.org",
              "code": "4548-4",
              "display": "Hemoglobin A1c/Hemoglobin.total in Blood"
            }
          ]
        },
        "subject": {
          "reference": "Patient/Patient-6537",
          "display": "Lloyd Cardenas Villegas"
        },
        "context": {
          "reference": "Encounter/Encounter-3154",
          "display": "Wellness Visit"
        },
        "effectiveDateTime": "2013-11-22T00:00:00-05:00",
        "performer": [
          {
            "reference": "Practitioner/Practitioner-2534",
            "display": "Pearl Rita Dawson MD"
          }
        ],
        "valueQuantity": {
          "value": 5.132966820905094,
          "unit": "%"
        }
      },
      "request": {
        "method": "PUT",
        "url": "http://localhost:8080/cqf-ruler/baseDstu3/Observation/Observation-588986"
      }
    },
    {
      "fullUrl": "http://localhost:8080/cqf-ruler/baseDstu3/Observation/Observation-588987",
      "resource": {
        "resourceType": "Observation",
        "id": "Observation-588987",
        "meta": {
          "profile": [
            "http://hl7.org/fhir/us/hedis/StructureDefinition/hedis-observation"
          ]
        },
        "status": "final",
        "code": {
          "coding": [
            {
              "system": "http://loinc.org",
              "code": "2339-0",
              "display": "Glucose"
            }
          ]
        },
        "subject": {
          "reference": "Patient/Patient-6537",
          "display": "Lloyd Cardenas Villegas"
        },
        "context": {
          "reference": "Encounter/Encounter-3154",
          "display": "Wellness Visit"
        },
        "effectiveDateTime": "2013-11-22T00:00:00-05:00",
        "performer": [
          {
            "reference": "Practitioner/Practitioner-2534",
            "display": "Pearl Rita Dawson MD"
          }
        ],
        "valueQuantity": {
          "value": 77.6631399583065,
          "unit": "mg/dL"
        }
      },
      "request": {
        "method": "PUT",
        "url": "http://localhost:8080/cqf-ruler/baseDstu3/Observation/Observation-588987"
      }
    },
    {
      "fullUrl": "http://localhost:8080/cqf-ruler/baseDstu3/Observation/Observation-588988",
      "resource": {
        "resourceType": "Observation",
        "id": "Observation-588988",
        "meta": {
          "profile": [
            "http://hl7.org/fhir/us/hedis/StructureDefinition/hedis-observation"
          ]
        },
        "status": "final",
        "code": {
          "coding": [
            {
              "system": "http://loinc.org",
              "code": "6299-2",
              "display": "Urea Nitrogen"
            }
          ]
        },
        "subject": {
          "reference": "Patient/Patient-6537",
          "display": "Lloyd Cardenas Villegas"
        },
        "context": {
          "reference": "Encounter/Encounter-3154",
          "display": "Wellness Visit"
        },
        "effectiveDateTime": "2013-11-22T00:00:00-05:00",
        "performer": [
          {
            "reference": "Practitioner/Practitioner-2534",
            "display": "Pearl Rita Dawson MD"
          }
        ],
        "valueQuantity": {
          "value": 14.06473162301373,
          "unit": "mg/dL"
        }
      },
      "request": {
        "method": "PUT",
        "url": "http://localhost:8080/cqf-ruler/baseDstu3/Observation/Observation-588988"
      }
    },
    {
      "fullUrl": "http://localhost:8080/cqf-ruler/baseDstu3/Observation/Observation-588989",
      "resource": {
        "resourceType": "Observation",
        "id": "Observation-588989",
        "meta": {
          "profile": [
            "http://hl7.org/fhir/us/hedis/StructureDefinition/hedis-observation"
          ]
        },
        "status": "final",
        "code": {
          "coding": [
            {
              "system": "http://loinc.org",
              "code": "38483-4",
              "display": "Creatinine"
            }
          ]
        },
        "subject": {
          "reference": "Patient/Patient-6537",
          "display": "Lloyd Cardenas Villegas"
        },
        "context": {
          "reference": "Encounter/Encounter-3154",
          "display": "Wellness Visit"
        },
        "effectiveDateTime": "2013-11-22T00:00:00-05:00",
        "performer": [
          {
            "reference": "Practitioner/Practitioner-2534",
            "display": "Pearl Rita Dawson MD"
          }
        ],
        "valueQuantity": {
          "value": -0.15380459471747393,
          "unit": "mg/dL"
        }
      },
      "request": {
        "method": "PUT",
        "url": "http://localhost:8080/cqf-ruler/baseDstu3/Observation/Observation-588989"
      }
    },
    {
      "fullUrl": "http://localhost:8080/cqf-ruler/baseDstu3/Observation/Observation-588990",
      "resource": {
        "resourceType": "Observation",
        "id": "Observation-588990",
        "meta": {
          "profile": [
            "http://hl7.org/fhir/us/hedis/StructureDefinition/hedis-observation"
          ]
        },
        "status": "final",
        "code": {
          "coding": [
            {
              "system": "http://loinc.org",
              "code": "49765-1",
              "display": "Calcium"
            }
          ]
        },
        "subject": {
          "reference": "Patient/Patient-6537",
          "display": "Lloyd Cardenas Villegas"
        },
        "context": {
          "reference": "Encounter/Encounter-3154",
          "display": "Wellness Visit"
        },
        "effectiveDateTime": "2013-11-22T00:00:00-05:00",
        "performer": [
          {
            "reference": "Practitioner/Practitioner-2534",
            "display": "Pearl Rita Dawson MD"
          }
        ],
        "valueQuantity": {
          "value": 1.5609767718926102,
          "unit": "mmol/L"
        }
      },
      "request": {
        "method": "PUT",
        "url": "http://localhost:8080/cqf-ruler/baseDstu3/Observation/Observation-588990"
      }
    },
    {
      "fullUrl": "http://localhost:8080/cqf-ruler/baseDstu3/Observation/Observation-588991",
      "resource": {
        "resourceType": "Observation",
        "id": "Observation-588991",
        "meta": {
          "profile": [
            "http://hl7.org/fhir/us/hedis/StructureDefinition/hedis-observation"
          ]
        },
        "status": "final",
        "code": {
          "coding": [
            {
              "system": "http://loinc.org",
              "code": "2947-0",
              "display": "Sodium"
            }
          ]
        },
        "subject": {
          "reference": "Patient/Patient-6537",
          "display": "Lloyd Cardenas Villegas"
        },
        "context": {
          "reference": "Encounter/Encounter-3154",
          "display": "Wellness Visit"
        },
        "effectiveDateTime": "2013-11-22T00:00:00-05:00",
        "performer": [
          {
            "reference": "Practitioner/Practitioner-2534",
            "display": "Pearl Rita Dawson MD"
          }
        ],
        "valueQuantity": {
          "value": 137.10126530791507,
          "unit": "mmol/L"
        }
      },
      "request": {
        "method": "PUT",
        "url": "http://localhost:8080/cqf-ruler/baseDstu3/Observation/Observation-588991"
      }
    },
    {
      "fullUrl": "http://localhost:8080/cqf-ruler/baseDstu3/Observation/Observation-588992",
      "resource": {
        "resourceType": "Observation",
        "id": "Observation-588992",
        "meta": {
          "profile": [
            "http://hl7.org/fhir/us/hedis/StructureDefinition/hedis-observation"
          ]
        },
        "status": "final",
        "code": {
          "coding": [
            {
              "system": "http://loinc.org",
              "code": "6298-4",
              "display": "Potassium"
            }
          ]
        },
        "subject": {
          "reference": "Patient/Patient-6537",
          "display": "Lloyd Cardenas Villegas"
        },
        "context": {
          "reference": "Encounter/Encounter-3154",
          "display": "Wellness Visit"
        },
        "effectiveDateTime": "2013-11-22T00:00:00-05:00",
        "performer": [
          {
            "reference": "Practitioner/Practitioner-2534",
            "display": "Pearl Rita Dawson MD"
          }
        ],
        "valueQuantity": {
          "value": 5.718750589954127,
          "unit": "mmol/L"
        }
      },
      "request": {
        "method": "PUT",
        "url": "http://localhost:8080/cqf-ruler/baseDstu3/Observation/Observation-588992"
      }
    },
    {
      "fullUrl": "http://localhost:8080/cqf-ruler/baseDstu3/Observation/Observation-588993",
      "resource": {
        "resourceType": "Observation",
        "id": "Observation-588993",
        "meta": {
          "profile": [
            "http://hl7.org/fhir/us/hedis/StructureDefinition/hedis-observation"
          ]
        },
        "status": "final",
        "code": {
          "coding": [
            {
              "system": "http://loinc.org",
              "code": "2069-3",
              "display": "Chloride"
            }
          ]
        },
        "subject": {
          "reference": "Patient/Patient-6537",
          "display": "Lloyd Cardenas Villegas"
        },
        "context": {
          "reference": "Encounter/Encounter-3154",
          "display": "Wellness Visit"
        },
        "effectiveDateTime": "2013-11-22T00:00:00-05:00",
        "performer": [
          {
            "reference": "Practitioner/Practitioner-2534",
            "display": "Pearl Rita Dawson MD"
          }
        ],
        "valueQuantity": {
          "value": 109.83997490351705,
          "unit": "mmol/L"
        }
      },
      "request": {
        "method": "PUT",
        "url": "http://localhost:8080/cqf-ruler/baseDstu3/Observation/Observation-588993"
      }
    },
    {
      "fullUrl": "http://localhost:8080/cqf-ruler/baseDstu3/Observation/Observation-588994",
      "resource": {
        "resourceType": "Observation",
        "id": "Observation-588994",
        "meta": {
          "profile": [
            "http://hl7.org/fhir/us/hedis/StructureDefinition/hedis-observation"
          ]
        },
        "status": "final",
        "code": {
          "coding": [
            {
              "system": "http://loinc.org",
              "code": "20565-8",
              "display": "Carbon Dioxide"
            }
          ]
        },
        "subject": {
          "reference": "Patient/Patient-6537",
          "display": "Lloyd Cardenas Villegas"
        },
        "context": {
          "reference": "Encounter/Encounter-3154",
          "display": "Wellness Visit"
        },
        "effectiveDateTime": "2013-11-22T00:00:00-05:00",
        "performer": [
          {
            "reference": "Practitioner/Practitioner-2534",
            "display": "Pearl Rita Dawson MD"
          }
        ],
        "valueQuantity": {
          "value": 28.286317233384136,
          "unit": "mmol/L"
        }
      },
      "request": {
        "method": "PUT",
        "url": "http://localhost:8080/cqf-ruler/baseDstu3/Observation/Observation-588994"
      }
    },
    {
      "fullUrl": "http://localhost:8080/cqf-ruler/baseDstu3/DiagnosticReport/DiagnosticReport-588995",
      "resource": {
        "resourceType": "DiagnosticReport",
        "id": "DiagnosticReport-588995",
        "meta": {
          "profile": [
            "http://hl7.org/fhir/us/hedis/StructureDefinition/hedis-diagnosticreport"
          ]
        },
        "status": "final",
        "category": {
          "coding": [
            {
              "system": "http://hl7.org/fhir/ValueSet/diagnostic-service-sections",
              "code": "LAB",
              "display": "Laboratory"
            }
          ]
        },
        "code": {
          "coding": [
            {
              "system": "http://loinc.org",
              "code": "51990-0",
              "display": "Basic Metabolic Panel"
            }
          ]
        },
        "subject": {
          "reference": "Patient/Patient-6537",
          "display": "Lloyd Cardenas Villegas"
        },
        "context": {
          "reference": "Encounter/Encounter-3154",
          "display": "Wellness Visit"
        },
        "effectivePeriod": {
          "start": "2013-11-22T00:00:00-05:00",
          "end": "2013-11-22T00:00:00-05:00"
        },
        "issued": "2013-11-22T00:00:00.000-05:00",
        "result": [
          {
            "reference": "Observation/Observation-588987",
            "display": "Record_Glucose"
          },
          {
            "reference": "Observation/Observation-588988",
            "display": "Record_UreaNitrogen"
          },
          {
            "reference": "Observation/Observation-588989",
            "display": "Record_Creatinine"
          },
          {
            "reference": "Observation/Observation-588990",
            "display": "Record_Calcium"
          },
          {
            "reference": "Observation/Observation-588991",
            "display": "Record_Sodium"
          },
          {
            "reference": "Observation/Observation-588992",
            "display": "Record_Potassium"
          },
          {
            "reference": "Observation/Observation-588993",
            "display": "Record_Chloride"
          },
          {
            "reference": "Observation/Observation-588994",
            "display": "Record_CO2"
          }
        ]
      },
      "request": {
        "method": "PUT",
        "url": "http://localhost:8080/cqf-ruler/baseDstu3/DiagnosticReport/DiagnosticReport-588995"
      }
    },
    {
      "fullUrl": "http://localhost:8080/cqf-ruler/baseDstu3/Observation/Observation-588996",
      "resource": {
        "resourceType": "Observation",
        "id": "Observation-588996",
        "meta": {
          "profile": [
            "http://hl7.org/fhir/us/hedis/StructureDefinition/hedis-observation"
          ]
        },
        "status": "final",
        "code": {
          "coding": [
            {
              "system": "http://loinc.org",
              "code": "2093-3",
              "display": "Total Cholesterol"
            }
          ]
        },
        "subject": {
          "reference": "Patient/Patient-6537",
          "display": "Lloyd Cardenas Villegas"
        },
        "context": {
          "reference": "Encounter/Encounter-3154",
          "display": "Wellness Visit"
        },
        "effectiveDateTime": "2013-11-22T00:00:00-05:00",
        "performer": [
          {
            "reference": "Practitioner/Practitioner-2534",
            "display": "Pearl Rita Dawson MD"
          }
        ],
        "valueQuantity": {
          "value": 120.37228082531986,
          "unit": "mg/dL"
        }
      },
      "request": {
        "method": "PUT",
        "url": "http://localhost:8080/cqf-ruler/baseDstu3/Observation/Observation-588996"
      }
    },
    {
      "fullUrl": "http://localhost:8080/cqf-ruler/baseDstu3/Observation/Observation-588997",
      "resource": {
        "resourceType": "Observation",
        "id": "Observation-588997",
        "meta": {
          "profile": [
            "http://hl7.org/fhir/us/hedis/StructureDefinition/hedis-observation"
          ]
        },
        "status": "final",
        "code": {
          "coding": [
            {
              "system": "http://loinc.org",
              "code": "2571-8",
              "display": "Triglycerides"
            }
          ]
        },
        "subject": {
          "reference": "Patient/Patient-6537",
          "display": "Lloyd Cardenas Villegas"
        },
        "context": {
          "reference": "Encounter/Encounter-3154",
          "display": "Wellness Visit"
        },
        "effectiveDateTime": "2013-11-22T00:00:00-05:00",
        "performer": [
          {
            "reference": "Practitioner/Practitioner-2534",
            "display": "Pearl Rita Dawson MD"
          }
        ],
        "valueQuantity": {
          "value": 39.872263300475595,
          "unit": "mg/dL"
        }
      },
      "request": {
        "method": "PUT",
        "url": "http://localhost:8080/cqf-ruler/baseDstu3/Observation/Observation-588997"
      }
    },
    {
      "fullUrl": "http://localhost:8080/cqf-ruler/baseDstu3/Observation/Observation-588998",
      "resource": {
        "resourceType": "Observation",
        "id": "Observation-588998",
        "meta": {
          "profile": [
            "http://hl7.org/fhir/us/hedis/StructureDefinition/hedis-observation"
          ]
        },
        "status": "final",
        "code": {
          "coding": [
            {
              "system": "http://loinc.org",
              "code": "18262-6",
              "display": "Low Density Lipoprotein Cholesterol"
            }
          ]
        },
        "subject": {
          "reference": "Patient/Patient-6537",
          "display": "Lloyd Cardenas Villegas"
        },
        "context": {
          "reference": "Encounter/Encounter-3154",
          "display": "Wellness Visit"
        },
        "effectiveDateTime": "2013-11-22T00:00:00-05:00",
        "performer": [
          {
            "reference": "Practitioner/Practitioner-2534",
            "display": "Pearl Rita Dawson MD"
          }
        ],
        "valueQuantity": {
          "value": 65.87362103907084,
          "unit": "mg/dL"
        }
      },
      "request": {
        "method": "PUT",
        "url": "http://localhost:8080/cqf-ruler/baseDstu3/Observation/Observation-588998"
      }
    },
    {
      "fullUrl": "http://localhost:8080/cqf-ruler/baseDstu3/Observation/Observation-588999",
      "resource": {
        "resourceType": "Observation",
        "id": "Observation-588999",
        "meta": {
          "profile": [
            "http://hl7.org/fhir/us/hedis/StructureDefinition/hedis-observation"
          ]
        },
        "status": "final",
        "code": {
          "coding": [
            {
              "system": "http://loinc.org",
              "code": "2085-9",
              "display": "High Density Lipoprotein Cholesterol"
            }
          ]
        },
        "subject": {
          "reference": "Patient/Patient-6537",
          "display": "Lloyd Cardenas Villegas"
        },
        "context": {
          "reference": "Encounter/Encounter-3154",
          "display": "Wellness Visit"
        },
        "effectiveDateTime": "2013-11-22T00:00:00-05:00",
        "performer": [
          {
            "reference": "Practitioner/Practitioner-2534",
            "display": "Pearl Rita Dawson MD"
          }
        ],
        "valueQuantity": {
          "value": 46.5242071261539,
          "unit": "mg/dL"
        }
      },
      "request": {
        "method": "PUT",
        "url": "http://localhost:8080/cqf-ruler/baseDstu3/Observation/Observation-588999"
      }
    },
    {
      "fullUrl": "http://localhost:8080/cqf-ruler/baseDstu3/DiagnosticReport/DiagnosticReport-589000",
      "resource": {
        "resourceType": "DiagnosticReport",
        "id": "DiagnosticReport-589000",
        "meta": {
          "profile": [
            "http://hl7.org/fhir/us/hedis/StructureDefinition/hedis-diagnosticreport"
          ]
        },
        "status": "final",
        "category": {
          "coding": [
            {
              "system": "http://hl7.org/fhir/ValueSet/diagnostic-service-sections",
              "code": "LAB",
              "display": "Laboratory"
            }
          ]
        },
        "code": {
          "coding": [
            {
              "system": "http://loinc.org",
              "code": "57698-3",
              "display": "Lipid Panel"
            }
          ]
        },
        "subject": {
          "reference": "Patient/Patient-6537",
          "display": "Lloyd Cardenas Villegas"
        },
        "context": {
          "reference": "Encounter/Encounter-3154",
          "display": "Wellness Visit"
        },
        "effectivePeriod": {
          "start": "2013-11-22T00:00:00-05:00",
          "end": "2013-11-22T00:00:00-05:00"
        },
        "issued": "2013-11-22T00:00:00.000-05:00",
        "result": [
          {
            "reference": "Observation/Observation-588996",
            "display": "Record_Cholesterol"
          },
          {
            "reference": "Observation/Observation-588997",
            "display": "Record_Triglycerides"
          },
          {
            "reference": "Observation/Observation-588998",
            "display": "Record_LDL"
          },
          {
            "reference": "Observation/Observation-588999",
            "display": "Record_HDL"
          }
        ]
      },
      "request": {
        "method": "PUT",
        "url": "http://localhost:8080/cqf-ruler/baseDstu3/DiagnosticReport/DiagnosticReport-589000"
      }
    },
    {
      "fullUrl": "http://localhost:8080/cqf-ruler/baseDstu3/Observation/Observation-589002",
      "resource": {
        "resourceType": "Observation",
        "id": "Observation-589002",
        "status": "final",
        "code": {
          "coding": [
            {
              "system": "http://loinc.org",
              "code": "8302-2",
              "display": "Height"
            }
          ]
        },
        "subject": {
          "reference": "Patient/Patient-6537",
          "display": "Lloyd Cardenas Villegas"
        },
        "context": {
          "reference": "Encounter/Encounter-3154",
          "display": "Wellness Visit"
        },
        "effectiveDateTime": "2013-11-22T00:00:00-05:00",
        "performer": [
          {
            "reference": "Practitioner/Practitioner-2534",
            "display": "Pearl Rita Dawson MD"
          }
        ],
        "valueQuantity": {
          "value": 176.8,
          "unit": "cm"
        }
      },
      "request": {
        "method": "PUT",
        "url": "http://localhost:8080/cqf-ruler/baseDstu3/Observation/Observation-589002"
      }
    },
    {
      "fullUrl": "http://localhost:8080/cqf-ruler/baseDstu3/Observation/Observation-589003",
      "resource": {
        "resourceType": "Observation",
        "id": "Observation-589003",
        "status": "final",
        "code": {
          "coding": [
            {
              "system": "http://loinc.org",
              "code": "29463-7",
              "display": "Weight"
            }
          ]
        },
        "subject": {
          "reference": "Patient/Patient-6537",
          "display": "Lloyd Cardenas Villegas"
        },
        "context": {
          "reference": "Encounter/Encounter-3154",
          "display": "Wellness Visit"
        },
        "effectiveDateTime": "2013-11-22T00:00:00-05:00",
        "performer": [
          {
            "reference": "Practitioner/Practitioner-2534",
            "display": "Pearl Rita Dawson MD"
          }
        ],
        "valueQuantity": {
          "value": 96.0016875070049,
          "unit": "kg"
        }
      },
      "request": {
        "method": "PUT",
        "url": "http://localhost:8080/cqf-ruler/baseDstu3/Observation/Observation-589003"
      }
    },
    {
      "fullUrl": "http://localhost:8080/cqf-ruler/baseDstu3/Observation/Observation-589004",
      "resource": {
        "resourceType": "Observation",
        "id": "Observation-589004",
        "status": "final",
        "code": {
          "coding": [
            {
              "system": "http://loinc.org",
              "code": "39156-5",
              "display": "BMI"
            }
          ]
        },
        "subject": {
          "reference": "Patient/Patient-6537",
          "display": "Lloyd Cardenas Villegas"
        },
        "context": {
          "reference": "Encounter/Encounter-3154",
          "display": "Wellness Visit"
        },
        "effectiveDateTime": "2013-11-22T00:00:00-05:00",
        "performer": [
          {
            "reference": "Practitioner/Practitioner-2534",
            "display": "Pearl Rita Dawson MD"
          }
        ],
        "valueQuantity": {
          "value": 30.71244174560209,
          "unit": "kg/m2"
        }
      },
      "request": {
        "method": "PUT",
        "url": "http://localhost:8080/cqf-ruler/baseDstu3/Observation/Observation-589004"
      }
    },
    {
      "fullUrl": "http://localhost:8080/cqf-ruler/baseDstu3/Observation/Observation-589005",
      "resource": {
        "resourceType": "Observation",
        "id": "Observation-589005",
        "status": "final",
        "code": {
          "coding": [
            {
              "system": "http://loinc.org",
              "code": "8310-5",
              "display": "Temperature"
            }
          ]
        },
        "subject": {
          "reference": "Patient/Patient-6537",
          "display": "Lloyd Cardenas Villegas"
        },
        "context": {
          "reference": "Encounter/Encounter-3154",
          "display": "Wellness Visit"
        },
        "effectiveDateTime": "2013-11-22T00:00:00-05:00",
        "performer": [
          {
            "reference": "Practitioner/Practitioner-2534",
            "display": "Pearl Rita Dawson MD"
          }
        ],
        "valueQuantity": {
          "value": 37.0,
          "unit": "C"
        }
      },
      "request": {
        "method": "PUT",
        "url": "http://localhost:8080/cqf-ruler/baseDstu3/Observation/Observation-589005"
      }
    },
    {
      "fullUrl": "http://localhost:8080/cqf-ruler/baseDstu3/Observation/Observation-589006",
      "resource": {
        "resourceType": "Observation",
        "id": "Observation-589006",
        "status": "final",
        "code": {
          "coding": [
            {
              "system": "http://loinc.org",
              "code": "8459-0",
              "display": "Systolic Blood Pressure"
            }
          ]
        },
        "subject": {
          "reference": "Patient/Patient-6537",
          "display": "Lloyd Cardenas Villegas"
        },
        "context": {
          "reference": "Encounter/Encounter-3154",
          "display": "Wellness Visit"
        },
        "effectiveDateTime": "2013-11-22T00:00:00-05:00",
        "performer": [
          {
            "reference": "Practitioner/Practitioner-2534",
            "display": "Pearl Rita Dawson MD"
          }
        ],
        "valueQuantity": {
          "value": 123.04211989902834,
          "unit": "mmHg"
        }
      },
      "request": {
        "method": "PUT",
        "url": "http://localhost:8080/cqf-ruler/baseDstu3/Observation/Observation-589006"
      }
    },
    {
      "fullUrl": "http://localhost:8080/cqf-ruler/baseDstu3/Observation/Observation-589007",
      "resource": {
        "resourceType": "Observation",
        "id": "Observation-589007",
        "status": "final",
        "code": {
          "coding": [
            {
              "system": "http://loinc.org",
              "code": "8453-3",
              "display": "Diastolic Blood Pressure"
            }
          ]
        },
        "subject": {
          "reference": "Patient/Patient-6537",
          "display": "Lloyd Cardenas Villegas"
        },
        "context": {
          "reference": "Encounter/Encounter-3154",
          "display": "Wellness Visit"
        },
        "effectiveDateTime": "2013-11-22T00:00:00-05:00",
        "performer": [
          {
            "reference": "Practitioner/Practitioner-2534",
            "display": "Pearl Rita Dawson MD"
          }
        ],
        "valueQuantity": {
          "value": 75.01614377733489,
          "unit": "mmHg"
        }
      },
      "request": {
        "method": "PUT",
        "url": "http://localhost:8080/cqf-ruler/baseDstu3/Observation/Observation-589007"
      }
    },
    {
      "fullUrl": "http://localhost:8080/cqf-ruler/baseDstu3/DiagnosticReport/DiagnosticReport-589001",
      "resource": {
        "resourceType": "DiagnosticReport",
        "id": "DiagnosticReport-589001",
        "meta": {
          "profile": [
            "http://hl7.org/fhir/us/hedis/StructureDefinition/hedis-diagnosticreport"
          ]
        },
        "status": "final",
        "category": {
          "coding": [
            {
              "system": "http://hl7.org/fhir/ValueSet/diagnostic-service-sections",
              "code": "LAB",
              "display": "Laboratory"
            }
          ]
        },
        "code": {
          "coding": [
            {
              "system": "http://loinc.org",
              "code": "8716-3",
              "display": "Vital Signs Panel"
            }
          ]
        },
        "subject": {
          "reference": "Patient/Patient-6537",
          "display": "Lloyd Cardenas Villegas"
        },
        "context": {
          "reference": "Encounter/Encounter-3154",
          "display": "Wellness Visit"
        },
        "effectivePeriod": {
          "start": "2013-11-22T00:00:00-05:00",
          "end": "2013-11-22T00:00:00-05:00"
        },
        "issued": "2013-11-22T00:00:00.000-05:00",
        "result": [
          {
            "reference": "Observation/Observation-589002",
            "display": "Height"
          },
          {
            "reference": "Observation/Observation-589003",
            "display": "Weight"
          },
          {
            "reference": "Observation/Observation-589004",
            "display": "BMI"
          },
          {
            "reference": "Observation/Observation-589005",
            "display": "Temperature"
          },
          {
            "reference": "Observation/Observation-589006",
            "display": "Systolic Blood Pressure"
          },
          {
            "reference": "Observation/Observation-589007",
            "display": "Diastolic Blood Pressure"
          }
        ]
      },
      "request": {
        "method": "PUT",
        "url": "http://localhost:8080/cqf-ruler/baseDstu3/DiagnosticReport/DiagnosticReport-589001"
      }
    }
  ]
}