{
  "resourceType": "Bundle",
  "id": "Lloyd-Cardenas-Villegas-6537-Encounter-1469",
  "type": "transaction",
  "entry": [
    {
      "fullUrl": "http://localhost:8080/cqf-ruler/baseDstu3/Encounter/Encounter-1469",
      "resource": {
        "resourceType": "Encounter",
        "id": "Encounter-1469",
        "status": "finished",
        "class": {
          "system": "http://hl7.org/fhir/encounter-class",
          "code": "outpatient",
          "display": "Inpatient"
        },
        "subject": {
          "reference": "Patient/Patient-6537",
          "display": "Lloyd Cardenas Villegas"
        },
        "participant": [
          {
            "period": {
              "start": "2004-04-16T00:00:00-04:00",
              "end": "2004-04-16T00:00:00-04:00"
            },
            "individual": {
              "reference": "Practitioner/Practitioner-2534",
              "display": "Pearl Rita Dawson MD"
            }
          }
        ],
        "period": {
          "start": "2004-04-16T00:00:00-04:00",
          "end": "2004-04-16T00:00:00-04:00"
        },
        "location": [
          {
            "location": {
              "reference": "Location/Location-1101",
              "display": "McKinley Health Center"
            }
          }
        ],
        "serviceProvider": {
          "reference": "Organization/Organization-1101",
          "display": "McKinley Health Center"
        }
      },
      "request": {
        "method": "PUT",
        "url": "http://localhost:8080/cqf-ruler/baseDstu3/Encounter/Encounter-1469"
      }
    },
    {
      "fullUrl": "http://localhost:8080/cqf-ruler/baseDstu3/Immunization/Immunization-312668",
      "resource": {
        "resourceType": "Immunization",
        "id": "Immunization-312668",
        "status": "completed",
        "notGiven": false,
        "vaccineCode": {
          "coding": [
            {
              "system": "http://hl7.org/fhir/sid/cvx",
              "code": "140",
              "display": "Influenza, seasonal, injectable, preservative free"
            }
          ]
        },
        "patient": {
          "reference": "Patient/Patient-6537",
          "display": "Lloyd Cardenas Villegas"
        },
        "date": "2004-04-16T00:00:00-04:00",
        "primarySource": true,
        "location": {
          "reference": "Location/Location-1101",
          "display": "McKinley Health Center"
        },
        "practitioner": [
          {
            "actor": {
              "reference": "Practitioner/Practitioner-2534",
              "display": "Pearl Rita Dawson MD"
            }
          }
        ]
      },
      "request": {
        "method": "PUT",
        "url": "http://localhost:8080/cqf-ruler/baseDstu3/Immunization/Immunization-312668"
      }
    },
    {
      "fullUrl": "http://localhost:8080/cqf-ruler/baseDstu3/Observation/Observation-335809",
      "resource": {
        "resourceType": "Observation",
        "id": "Observation-335809",
        "status": "final",
        "code": {
          "coding": [
            {
              "system": "http://loinc.org",
              "code": "8480-6",
              "display": "Systolic blood pressure"
            }
          ]
        },
        "subject": {
          "reference": "Patient/Patient-6537",
          "display": "Lloyd Cardenas Villegas"
        },
        "context": {
          "reference": "Encounter/Encounter-1469",
          "display": "Wellness Visit"
        },
        "effectivePeriod": {
          "start": "2004-04-16T00:00:00-04:00",
          "end": "2004-04-16T00:00:00-04:00"
        },
        "performer": [
          {
            "reference": "Practitioner/Practitioner-2534",
            "display": "Pearl Rita Dawson MD"
          }
        ],
        "valueQuantity": {
          "value": 112.83778108089324,
          "unit": "mmHg"
        }
      },
      "request": {
        "method": "PUT",
        "url": "http://localhost:8080/cqf-ruler/baseDstu3/Observation/Observation-335809"
      }
    },
    {
      "fullUrl": "http://localhost:8080/cqf-ruler/baseDstu3/Observation/Observation-335810",
      "resource": {
        "resourceType": "Observation",
        "id": "Observation-335810",
        "status": "final",
        "code": {
          "coding": [
            {
              "system": "http://loinc.org",
              "code": "8462-4",
              "display": "Diastolic blood pressure"
            }
          ]
        },
        "subject": {
          "reference": "Patient/Patient-6537",
          "display": "Lloyd Cardenas Villegas"
        },
        "context": {
          "reference": "Encounter/Encounter-1469",
          "display": "Wellness Visit"
        },
        "effectivePeriod": {
          "start": "2004-04-16T00:00:00-04:00",
          "end": "2004-04-16T00:00:00-04:00"
        },
        "performer": [
          {
            "reference": "Practitioner/Practitioner-2534",
            "display": "Pearl Rita Dawson MD"
          }
        ],
        "valueQuantity": {
          "value": 96.45077350988508,
          "unit": "mmHg"
        }
      },
      "request": {
        "method": "PUT",
        "url": "http://localhost:8080/cqf-ruler/baseDstu3/Observation/Observation-335810"
      }
    },
    {
      "fullUrl": "http://localhost:8080/cqf-ruler/baseDstu3/Condition/Condition-335811",
      "resource": {
        "resourceType": "Condition",
        "id": "Condition-335811",
        "clinicalStatus": "active",
        "verificationStatus": "confirmed",
        "code": {
          "coding": [
            {
              "system": "http://snomed.info/sct",
              "code": "48146000",
              "display": "Diastolic hypertension"
            }
          ]
        },
        "subject": {
          "reference": "Patient/Patient-6537",
          "display": "Lloyd Cardenas Villegas"
        },
        "context": {
          "reference": "Encounter/Encounter-1469",
          "display": "Wellness Visit"
        },
        "onsetDateTime": "2004-04-16T00:00:00-04:00",
        "assertedDate": "2004-04-16T00:00:00-04:00",
        "asserter": {
          "reference": "Practitioner/Practitioner-2534",
          "display": "Pearl Rita Dawson MD"
        }
      },
      "request": {
        "method": "PUT",
        "url": "http://localhost:8080/cqf-ruler/baseDstu3/Condition/Condition-335811"
      }
    },
    {
      "fullUrl": "http://localhost:8080/cqf-ruler/baseDstu3/Observation/Observation-335812",
      "resource": {
        "resourceType": "Observation",
        "id": "Observation-335812",
        "status": "final",
        "code": {
          "coding": [
            {
              "system": "http://loinc.org",
              "code": "8302-2",
              "display": "Body Height"
            }
          ]
        },
        "subject": {
          "reference": "Patient/Patient-6537",
          "display": "Lloyd Cardenas Villegas"
        },
        "context": {
          "reference": "Encounter/Encounter-1469",
          "display": "Wellness Visit"
        },
        "effectivePeriod": {
          "start": "2004-04-16T00:00:00-04:00",
          "end": "2004-04-16T00:00:00-04:00"
        },
        "performer": [
          {
            "reference": "Practitioner/Practitioner-2534",
            "display": "Pearl Rita Dawson MD"
          }
        ],
        "valueQuantity": {
          "value": 176.8,
          "unit": "cm"
        }
      },
      "request": {
        "method": "PUT",
        "url": "http://localhost:8080/cqf-ruler/baseDstu3/Observation/Observation-335812"
      }
    },
    {
      "fullUrl": "http://localhost:8080/cqf-ruler/baseDstu3/Observation/Observation-335813",
      "resource": {
        "resourceType": "Observation",
        "id": "Observation-335813",
        "status": "final",
        "code": {
          "coding": [
            {
              "system": "http://loinc.org",
              "code": "29463-7",
              "display": "Body Weight"
            }
          ]
        },
        "subject": {
          "reference": "Patient/Patient-6537",
          "display": "Lloyd Cardenas Villegas"
        },
        "context": {
          "reference": "Encounter/Encounter-1469",
          "display": "Wellness Visit"
        },
        "effectivePeriod": {
          "start": "2004-04-16T00:00:00-04:00",
          "end": "2004-04-16T00:00:00-04:00"
        },
        "performer": [
          {
            "reference": "Practitioner/Practitioner-2534",
            "display": "Pearl Rita Dawson MD"
          }
        ],
        "valueQuantity": {
          "value": 34.80489746035272,
          "unit": "kg"
        }
      },
      "request": {
        "method": "PUT",
        "url": "http://localhost:8080/cqf-ruler/baseDstu3/Observation/Observation-335813"
      }
    },
    {
      "fullUrl": "http://localhost:8080/cqf-ruler/baseDstu3/Observation/Observation-335814",
      "resource": {
        "resourceType": "Observation",
        "id": "Observation-335814",
        "status": "final",
        "code": {
          "coding": [
            {
              "system": "http://loinc.org",
              "code": "39156-5",
              "display": "Body Mass Index"
            }
          ]
        },
        "subject": {
          "reference": "Patient/Patient-6537",
          "display": "Lloyd Cardenas Villegas"
        },
        "context": {
          "reference": "Encounter/Encounter-1469",
          "display": "Wellness Visit"
        },
        "effectivePeriod": {
          "start": "2004-04-16T00:00:00-04:00",
          "end": "2004-04-16T00:00:00-04:00"
        },
        "performer": [
          {
            "reference": "Practitioner/Practitioner-2534",
            "display": "Pearl Rita Dawson MD"
          }
        ],
        "valueQuantity": {
          "value": 11.134631207756009,
          "unit": "kg/m2"
        }
      },
      "request": {
        "method": "PUT",
        "url": "http://localhost:8080/cqf-ruler/baseDstu3/Observation/Observation-335814"
      }
    },
    {
      "fullUrl": "http://localhost:8080/cqf-ruler/baseDstu3/Observation/Observation-335817",
      "resource": {
        "resourceType": "Observation",
        "id": "Observation-335817",
        "status": "final",
        "category": [
          {
            "coding": [
              {
                "system": "http://hl7.org/fhir/observation-category",
                "code": "vital-signs",
                "display": "vital-signs"
              }
            ]
          }
        ],
        "code": {
          "coding": [
            {
              "system": "http://loinc.org",
              "code": "55284-4",
              "display": "Blood Pressure"
            }
          ]
        },
        "subject": {
          "reference": "Patient/Patient-6537",
          "display": "Lloyd Cardenas Villegas"
        },
        "context": {
          "reference": "Encounter/Encounter-1469",
          "display": "Wellness Visit"
        },
        "effectivePeriod": {
          "start": "2004-04-16T00:00:00-04:00",
          "end": "2004-04-16T00:00:00-04:00"
        },
        "valueQuantity": {
          "value": 96.45077350988508,
          "unit": "mmHg"
        },
        "component": [
          {
            "code": {
              "coding": [
                {
                  "system": "http://loinc.org",
                  "code": "8480-6",
                  "display": "Systolic Blood Pressure"
                }
              ]
            }
          },
          {
            "code": {
              "coding": [
                {
                  "system": "http://loinc.org",
                  "code": "8462-4",
                  "display": "Diastolic Blood Pressure"
                }
              ]
            }
          }
        ]
      },
      "request": {
        "method": "PUT",
        "url": "http://localhost:8080/cqf-ruler/baseDstu3/Observation/Observation-335817"
      }
    },
    {
      "fullUrl": "http://localhost:8080/cqf-ruler/baseDstu3/Observation/Observation-335819",
      "resource": {
        "resourceType": "Observation",
        "id": "Observation-335819",
        "status": "final",
        "code": {
          "coding": [
            {
              "system": "http://loinc.org",
              "code": "8302-2",
              "display": "Height"
            }
          ]
        },
        "subject": {
          "reference": "Patient/Patient-6537",
          "display": "Lloyd Cardenas Villegas"
        },
        "context": {
          "reference": "Encounter/Encounter-1469",
          "display": "Wellness Visit"
        },
        "effectiveDateTime": "2004-04-16T00:00:00-04:00",
        "performer": [
          {
            "reference": "Practitioner/Practitioner-2534",
            "display": "Pearl Rita Dawson MD"
          }
        ],
        "valueQuantity": {
          "value": 176.8,
          "unit": "cm"
        }
      },
      "request": {
        "method": "PUT",
        "url": "http://localhost:8080/cqf-ruler/baseDstu3/Observation/Observation-335819"
      }
    },
    {
      "fullUrl": "http://localhost:8080/cqf-ruler/baseDstu3/Observation/Observation-335820",
      "resource": {
        "resourceType": "Observation",
        "id": "Observation-335820",
        "status": "final",
        "code": {
          "coding": [
            {
              "system": "http://loinc.org",
              "code": "29463-7",
              "display": "Weight"
            }
          ]
        },
        "subject": {
          "reference": "Patient/Patient-6537",
          "display": "Lloyd Cardenas Villegas"
        },
        "context": {
          "reference": "Encounter/Encounter-1469",
          "display": "Wellness Visit"
        },
        "effectiveDateTime": "2004-04-16T00:00:00-04:00",
        "performer": [
          {
            "reference": "Practitioner/Practitioner-2534",
            "display": "Pearl Rita Dawson MD"
          }
        ],
        "valueQuantity": {
          "value": 34.80489746035272,
          "unit": "kg"
        }
      },
      "request": {
        "method": "PUT",
        "url": "http://localhost:8080/cqf-ruler/baseDstu3/Observation/Observation-335820"
      }
    },
    {
      "fullUrl": "http://localhost:8080/cqf-ruler/baseDstu3/Observation/Observation-335821",
      "resource": {
        "resourceType": "Observation",
        "id": "Observation-335821",
        "status": "final",
        "code": {
          "coding": [
            {
              "system": "http://loinc.org",
              "code": "39156-5",
              "display": "BMI"
            }
          ]
        },
        "subject": {
          "reference": "Patient/Patient-6537",
          "display": "Lloyd Cardenas Villegas"
        },
        "context": {
          "reference": "Encounter/Encounter-1469",
          "display": "Wellness Visit"
        },
        "effectiveDateTime": "2004-04-16T00:00:00-04:00",
        "performer": [
          {
            "reference": "Practitioner/Practitioner-2534",
            "display": "Pearl Rita Dawson MD"
          }
        ],
        "valueQuantity": {
          "value": 11.134631207756009,
          "unit": "kg/m2"
        }
      },
      "request": {
        "method": "PUT",
        "url": "http://localhost:8080/cqf-ruler/baseDstu3/Observation/Observation-335821"
      }
    },
    {
      "fullUrl": "http://localhost:8080/cqf-ruler/baseDstu3/Observation/Observation-335822",
      "resource": {
        "resourceType": "Observation",
        "id": "Observation-335822",
        "status": "final",
        "code": {
          "coding": [
            {
              "system": "http://loinc.org",
              "code": "8310-5",
              "display": "Temperature"
            }
          ]
        },
        "subject": {
          "reference": "Patient/Patient-6537",
          "display": "Lloyd Cardenas Villegas"
        },
        "context": {
          "reference": "Encounter/Encounter-1469",
          "display": "Wellness Visit"
        },
        "effectiveDateTime": "2004-04-16T00:00:00-04:00",
        "performer": [
          {
            "reference": "Practitioner/Practitioner-2534",
            "display": "Pearl Rita Dawson MD"
          }
        ],
        "valueQuantity": {
          "value": 37.0,
          "unit": "C"
        }
      },
      "request": {
        "method": "PUT",
        "url": "http://localhost:8080/cqf-ruler/baseDstu3/Observation/Observation-335822"
      }
    },
    {
      "fullUrl": "http://localhost:8080/cqf-ruler/baseDstu3/Observation/Observation-335823",
      "resource": {
        "resourceType": "Observation",
        "id": "Observation-335823",
        "status": "final",
        "code": {
          "coding": [
            {
              "system": "http://loinc.org",
              "code": "8459-0",
              "display": "Systolic Blood Pressure"
            }
          ]
        },
        "subject": {
          "reference": "Patient/Patient-6537",
          "display": "Lloyd Cardenas Villegas"
        },
        "context": {
          "reference": "Encounter/Encounter-1469",
          "display": "Wellness Visit"
        },
        "effectiveDateTime": "2004-04-16T00:00:00-04:00",
        "performer": [
          {
            "reference": "Practitioner/Practitioner-2534",
            "display": "Pearl Rita Dawson MD"
          }
        ],
        "valueQuantity": {
          "value": 112.83778108089324,
          "unit": "mmHg"
        }
      },
      "request": {
        "method": "PUT",
        "url": "http://localhost:8080/cqf-ruler/baseDstu3/Observation/Observation-335823"
      }
    },
    {
      "fullUrl": "http://localhost:8080/cqf-ruler/baseDstu3/Observation/Observation-335824",
      "resource": {
        "resourceType": "Observation",
        "id": "Observation-335824",
        "status": "final",
        "code": {
          "coding": [
            {
              "system": "http://loinc.org",
              "code": "8453-3",
              "display": "Diastolic Blood Pressure"
            }
          ]
        },
        "subject": {
          "reference": "Patient/Patient-6537",
          "display": "Lloyd Cardenas Villegas"
        },
        "context": {
          "reference": "Encounter/Encounter-1469",
          "display": "Wellness Visit"
        },
        "effectiveDateTime": "2004-04-16T00:00:00-04:00",
        "performer": [
          {
            "reference": "Practitioner/Practitioner-2534",
            "display": "Pearl Rita Dawson MD"
          }
        ],
        "valueQuantity": {
          "value": 96.45077350988508,
          "unit": "mmHg"
        }
      },
      "request": {
        "method": "PUT",
        "url": "http://localhost:8080/cqf-ruler/baseDstu3/Observation/Observation-335824"
      }
    },
    {
      "fullUrl": "http://localhost:8080/cqf-ruler/baseDstu3/DiagnosticReport/DiagnosticReport-335818",
      "resource": {
        "resourceType": "DiagnosticReport",
        "id": "DiagnosticReport-335818",
        "status": "final",
        "code": {
          "coding": [
            {
              "system": "http://loinc.org",
              "code": "8716-3",
              "display": "Vital Signs Panel"
            }
          ]
        },
        "subject": {
          "reference": "Patient/Patient-6537",
          "display": "Lloyd Cardenas Villegas"
        },
        "context": {
          "reference": "Encounter/Encounter-1469",
          "display": "Wellness Visit"
        },
        "effectivePeriod": {
          "start": "2004-04-16T00:00:00-04:00",
          "end": "2004-04-16T00:00:00-04:00"
        },
        "issued": "2004-04-16T00:00:00.000-04:00",
        "result": [
          {
            "reference": "Observation/Observation-335819",
            "display": "Height"
          },
          {
            "reference": "Observation/Observation-335820",
            "display": "Weight"
          },
          {
            "reference": "Observation/Observation-335821",
            "display": "BMI"
          },
          {
            "reference": "Observation/Observation-335822",
            "display": "Temperature"
          },
          {
            "reference": "Observation/Observation-335823",
            "display": "Systolic Blood Pressure"
          },
          {
            "reference": "Observation/Observation-335824",
            "display": "Diastolic Blood Pressure"
          }
        ]
      },
      "request": {
        "method": "PUT",
        "url": "http://localhost:8080/cqf-ruler/baseDstu3/DiagnosticReport/DiagnosticReport-335818"
      }
    }
  ]
}