{
  "resourceType": "Bundle",
  "id": "Wendy-Danielle-Vaughn-6523-Encounter-536",
  "type": "transaction",
  "entry": [
    {
      "fullUrl": "http://localhost:8080/cqf-ruler/baseDstu3Encounter/Encounter-536",
      "resource": {
        "resourceType": "Encounter",
        "id": "Encounter-536",
        "status": "finished",
        "class": {
          "system": "http://hl7.org/fhir/encounter-class",
          "code": "outpatient",
          "display": "Inpatient"
        },
        "subject": {
          "reference": "Patient/Patient-6523",
          "display": "Wendy Danielle Vaughn"
        },
        "participant": [
          {
            "period": {
              "start": "1992-03-27T00:00:00-05:00",
              "end": "1992-03-27T00:00:00-05:00"
            },
            "individual": {
              "reference": "Practitioner/Practitioner-2520",
              "display": "Kimberly Christy Ashley MD"
            }
          }
        ],
        "period": {
          "start": "1992-03-27T00:00:00-05:00",
          "end": "1992-03-27T00:00:00-05:00"
        },
        "location": [
          {
            "location": {
              "reference": "Location/Location-1105",
              "display": "Bayside Medical Group"
            }
          }
        ],
        "serviceProvider": {
          "reference": "Organization/Organization-1105",
          "display": "Bayside Medical Group"
        }
      },
      "request": {
        "method": "PUT",
        "url": "http://localhost:8080/cqf-ruler/baseDstu3Encounter/Encounter-536"
      }
    },
    {
      "fullUrl": "http://localhost:8080/cqf-ruler/baseDstu3Immunization/Immunization-59157",
      "resource": {
        "resourceType": "Immunization",
        "id": "Immunization-59157",
        "status": "completed",
        "notGiven": false,
        "vaccineCode": {
          "coding": [
            {
              "system": "http://hl7.org/fhir/sid/cvx",
              "code": "140",
              "display": "Influenza, seasonal, injectable, preservative free"
            }
          ]
        },
        "patient": {
          "reference": "Patient/Patient-6523",
          "display": "Wendy Danielle Vaughn"
        },
        "date": "1992-03-27T00:00:00-05:00",
        "primarySource": true,
        "location": {
          "reference": "Location/Location-1105",
          "display": "Bayside Medical Group"
        },
        "practitioner": [
          {
            "actor": {
              "reference": "Practitioner/Practitioner-2520",
              "display": "Kimberly Christy Ashley MD"
            }
          }
        ]
      },
      "request": {
        "method": "PUT",
        "url": "http://localhost:8080/cqf-ruler/baseDstu3Immunization/Immunization-59157"
      }
    },
    {
      "fullUrl": "http://localhost:8080/cqf-ruler/baseDstu3Procedure/Procedure-78282",
      "resource": {
        "resourceType": "Procedure",
        "id": "Procedure-78282",
        "status": "completed",
        "code": {
          "coding": [
            {
              "system": "http://www.ama-assn.org/go/cpt",
              "code": "77067",
              "display": "Screening mammography, bilateral (2-view study of each breast), including computer-aided detection (CAD) when performed"
            }
          ]
        },
        "subject": {
          "reference": "Patient/Patient-6523",
          "display": "Wendy Danielle Vaughn"
        },
        "context": {
          "reference": "Encounter/Encounter-536",
          "display": "Wellness Visit"
        },
        "performedPeriod": {
          "start": "1992-03-27T00:00:00-05:00",
          "end": "1992-03-27T00:00:00-05:00"
        },
        "performer": [
          {
            "actor": {
              "reference": "Practitioner/Practitioner-2520",
              "display": "Kimberly Christy Ashley MD"
            }
          }
        ],
        "location": {
          "reference": "Location/Location-1105",
          "display": "Bayside Medical Group"
        }
      },
      "request": {
        "method": "PUT",
        "url": "http://localhost:8080/cqf-ruler/baseDstu3Procedure/Procedure-78282"
      }
    },
    {
      "fullUrl": "http://localhost:8080/cqf-ruler/baseDstu3Observation/Observation-78283",
      "resource": {
        "resourceType": "Observation",
        "id": "Observation-78283",
        "status": "final",
        "code": {
          "coding": [
            {
              "system": "http://snomed.info/sct",
              "code": "168749009",
              "display": "Mammography normal (finding)"
            }
          ]
        },
        "subject": {
          "reference": "Patient/Patient-6523",
          "display": "Wendy Danielle Vaughn"
        },
        "context": {
          "reference": "Encounter/Encounter-536",
          "display": "Wellness Visit"
        },
        "effectivePeriod": {
          "start": "1992-03-27T00:00:00-05:00",
          "end": "1992-03-27T00:00:00-05:00"
        },
        "performer": [
          {
            "reference": "Practitioner/Practitioner-2520",
            "display": "Kimberly Christy Ashley MD"
          }
        ],
        "valueString": "NEGATIVE"
      },
      "request": {
        "method": "PUT",
        "url": "http://localhost:8080/cqf-ruler/baseDstu3Observation/Observation-78283"
      }
    },
    {
      "fullUrl": "http://localhost:8080/cqf-ruler/baseDstu3DiagnosticReport/DiagnosticReport-78284",
      "resource": {
        "resourceType": "DiagnosticReport",
        "id": "DiagnosticReport-78284",
        "status": "final",
        "code": {
          "coding": [
            {
              "system": "http://loinc.org",
              "code": "26350-9",
              "display": "Breast - left Mammogram diagnostic limited"
            }
          ]
        },
        "subject": {
          "reference": "Patient/Patient-6523",
          "display": "Wendy Danielle Vaughn"
        },
        "context": {
          "reference": "Encounter/Encounter-536",
          "display": "Wellness Visit"
        },
        "effectivePeriod": {
          "start": "1992-03-27T00:00:00-05:00",
          "end": "1992-03-27T00:00:00-05:00"
        },
        "issued": "1992-03-27T00:00:00.000-05:00",
        "result": [
          {
            "reference": "Observation/Observation-78283",
            "display": "No_Cancer_Detected"
          }
        ]
      },
      "request": {
        "method": "PUT",
        "url": "http://localhost:8080/cqf-ruler/baseDstu3DiagnosticReport/DiagnosticReport-78284"
      }
    },
    {
      "fullUrl": "http://localhost:8080/cqf-ruler/baseDstu3Procedure/Procedure-78285",
      "resource": {
        "resourceType": "Procedure",
        "id": "Procedure-78285",
        "status": "completed",
        "code": {
          "coding": [
            {
              "system": "http://www.ama-assn.org/go/cpt",
              "code": "87621",
              "display": "Infectious agent detection by nucleic acid (DNA or RNA); papillomavirus, human, amplified probe technique"
            }
          ]
        },
        "subject": {
          "reference": "Patient/Patient-6523",
          "display": "Wendy Danielle Vaughn"
        },
        "context": {
          "reference": "Encounter/Encounter-536",
          "display": "Wellness Visit"
        },
        "performedPeriod": {
          "start": "1992-03-27T00:00:00-05:00",
          "end": "1992-03-27T00:00:00-05:00"
        },
        "performer": [
          {
            "actor": {
              "reference": "Practitioner/Practitioner-2520",
              "display": "Kimberly Christy Ashley MD"
            }
          }
        ],
        "location": {
          "reference": "Location/Location-1105",
          "display": "Bayside Medical Group"
        }
      },
      "request": {
        "method": "PUT",
        "url": "http://localhost:8080/cqf-ruler/baseDstu3Procedure/Procedure-78285"
      }
    },
    {
      "fullUrl": "http://localhost:8080/cqf-ruler/baseDstu3Observation/Observation-78286",
      "resource": {
        "resourceType": "Observation",
        "id": "Observation-78286",
        "status": "final",
        "code": {
          "coding": [
            {
              "system": "http://snomed.info/sct",
              "code": "289829007",
              "display": "Normal uterine cervix (finding)"
            }
          ]
        },
        "subject": {
          "reference": "Patient/Patient-6523",
          "display": "Wendy Danielle Vaughn"
        },
        "context": {
          "reference": "Encounter/Encounter-536",
          "display": "Wellness Visit"
        },
        "effectivePeriod": {
          "start": "1992-03-27T00:00:00-05:00",
          "end": "1992-03-27T00:00:00-05:00"
        },
        "performer": [
          {
            "reference": "Practitioner/Practitioner-2520",
            "display": "Kimberly Christy Ashley MD"
          }
        ],
        "valueString": "NEGATIVE"
      },
      "request": {
        "method": "PUT",
        "url": "http://localhost:8080/cqf-ruler/baseDstu3Observation/Observation-78286"
      }
    },
    {
      "fullUrl": "http://localhost:8080/cqf-ruler/baseDstu3DiagnosticReport/DiagnosticReport-78287",
      "resource": {
        "resourceType": "DiagnosticReport",
        "id": "DiagnosticReport-78287",
        "status": "final",
        "code": {
          "coding": [
            {
              "system": "https://www.cms.gov/Medicare/CMS-Forms/CMS-Forms/CMS-Forms-Items/CMS1196256.html/fl42",
              "code": "0923",
              "display": "Pap smear"
            }
          ]
        },
        "subject": {
          "reference": "Patient/Patient-6523",
          "display": "Wendy Danielle Vaughn"
        },
        "context": {
          "reference": "Encounter/Encounter-536",
          "display": "Wellness Visit"
        },
        "effectivePeriod": {
          "start": "1992-03-27T00:00:00-05:00",
          "end": "1992-03-27T00:00:00-05:00"
        },
        "issued": "1992-03-27T00:00:00.000-05:00",
        "result": [
          {
            "reference": "Observation/Observation-78286",
            "display": "No_Cancer_Detected"
          }
        ]
      },
      "request": {
        "method": "PUT",
        "url": "http://localhost:8080/cqf-ruler/baseDstu3DiagnosticReport/DiagnosticReport-78287"
      }
    },
    {
      "fullUrl": "http://localhost:8080/cqf-ruler/baseDstu3Observation/Observation-78289",
      "resource": {
        "resourceType": "Observation",
        "id": "Observation-78289",
        "status": "final",
        "code": {
          "coding": [
            {
              "system": "http://loinc.org",
              "code": "8302-2",
              "display": "Height"
            }
          ]
        },
        "subject": {
          "reference": "Patient/Patient-6523",
          "display": "Wendy Danielle Vaughn"
        },
        "context": {
          "reference": "Encounter/Encounter-536",
          "display": "Wellness Visit"
        },
        "effectiveDateTime": "1992-03-27T00:00:00-05:00",
        "performer": [
          {
            "reference": "Practitioner/Practitioner-2520",
            "display": "Kimberly Christy Ashley MD"
          }
        ],
        "valueQuantity": {
          "value": 152.7,
          "unit": "cm"
        }
      },
      "request": {
        "method": "PUT",
        "url": "http://localhost:8080/cqf-ruler/baseDstu3Observation/Observation-78289"
      }
    },
    {
      "fullUrl": "http://localhost:8080/cqf-ruler/baseDstu3Observation/Observation-78290",
      "resource": {
        "resourceType": "Observation",
        "id": "Observation-78290",
        "status": "final",
        "code": {
          "coding": [
            {
              "system": "http://loinc.org",
              "code": "29463-7",
              "display": "Weight"
            }
          ]
        },
        "subject": {
          "reference": "Patient/Patient-6523",
          "display": "Wendy Danielle Vaughn"
        },
        "context": {
          "reference": "Encounter/Encounter-536",
          "display": "Wellness Visit"
        },
        "effectiveDateTime": "1992-03-27T00:00:00-05:00",
        "performer": [
          {
            "reference": "Practitioner/Practitioner-2520",
            "display": "Kimberly Christy Ashley MD"
          }
        ],
        "valueQuantity": {
          "value": 85.64233141025565,
          "unit": "kg"
        }
      },
      "request": {
        "method": "PUT",
        "url": "http://localhost:8080/cqf-ruler/baseDstu3Observation/Observation-78290"
      }
    },
    {
      "fullUrl": "http://localhost:8080/cqf-ruler/baseDstu3Observation/Observation-78291",
      "resource": {
        "resourceType": "Observation",
        "id": "Observation-78291",
        "status": "final",
        "code": {
          "coding": [
            {
              "system": "http://loinc.org",
              "code": "39156-5",
              "display": "BMI"
            }
          ]
        },
        "subject": {
          "reference": "Patient/Patient-6523",
          "display": "Wendy Danielle Vaughn"
        },
        "context": {
          "reference": "Encounter/Encounter-536",
          "display": "Wellness Visit"
        },
        "effectiveDateTime": "1992-03-27T00:00:00-05:00",
        "performer": [
          {
            "reference": "Practitioner/Practitioner-2520",
            "display": "Kimberly Christy Ashley MD"
          }
        ],
        "valueQuantity": {
          "value": 36.72911020545512,
          "unit": "kg/m2"
        }
      },
      "request": {
        "method": "PUT",
        "url": "http://localhost:8080/cqf-ruler/baseDstu3Observation/Observation-78291"
      }
    },
    {
      "fullUrl": "http://localhost:8080/cqf-ruler/baseDstu3Observation/Observation-78292",
      "resource": {
        "resourceType": "Observation",
        "id": "Observation-78292",
        "status": "final",
        "code": {
          "coding": [
            {
              "system": "http://loinc.org",
              "code": "8310-5",
              "display": "Temperature"
            }
          ]
        },
        "subject": {
          "reference": "Patient/Patient-6523",
          "display": "Wendy Danielle Vaughn"
        },
        "context": {
          "reference": "Encounter/Encounter-536",
          "display": "Wellness Visit"
        },
        "effectiveDateTime": "1992-03-27T00:00:00-05:00",
        "performer": [
          {
            "reference": "Practitioner/Practitioner-2520",
            "display": "Kimberly Christy Ashley MD"
          }
        ],
        "valueQuantity": {
          "value": 37.0,
          "unit": "C"
        }
      },
      "request": {
        "method": "PUT",
        "url": "http://localhost:8080/cqf-ruler/baseDstu3Observation/Observation-78292"
      }
    },
    {
      "fullUrl": "http://localhost:8080/cqf-ruler/baseDstu3Observation/Observation-78293",
      "resource": {
        "resourceType": "Observation",
        "id": "Observation-78293",
        "status": "final",
        "code": {
          "coding": [
            {
              "system": "http://loinc.org",
              "code": "8459-0",
              "display": "Systolic Blood Pressure"
            }
          ]
        },
        "subject": {
          "reference": "Patient/Patient-6523",
          "display": "Wendy Danielle Vaughn"
        },
        "context": {
          "reference": "Encounter/Encounter-536",
          "display": "Wellness Visit"
        },
        "effectiveDateTime": "1992-03-27T00:00:00-05:00",
        "performer": [
          {
            "reference": "Practitioner/Practitioner-2520",
            "display": "Kimberly Christy Ashley MD"
          }
        ],
        "valueQuantity": {
          "value": 125.39115997563992,
          "unit": "mmHg"
        }
      },
      "request": {
        "method": "PUT",
        "url": "http://localhost:8080/cqf-ruler/baseDstu3Observation/Observation-78293"
      }
    },
    {
      "fullUrl": "http://localhost:8080/cqf-ruler/baseDstu3Observation/Observation-78294",
      "resource": {
        "resourceType": "Observation",
        "id": "Observation-78294",
        "status": "final",
        "code": {
          "coding": [
            {
              "system": "http://loinc.org",
              "code": "8453-3",
              "display": "Diastolic Blood Pressure"
            }
          ]
        },
        "subject": {
          "reference": "Patient/Patient-6523",
          "display": "Wendy Danielle Vaughn"
        },
        "context": {
          "reference": "Encounter/Encounter-536",
          "display": "Wellness Visit"
        },
        "effectiveDateTime": "1992-03-27T00:00:00-05:00",
        "performer": [
          {
            "reference": "Practitioner/Practitioner-2520",
            "display": "Kimberly Christy Ashley MD"
          }
        ],
        "valueQuantity": {
          "value": 85.8661867812818,
          "unit": "mmHg"
        }
      },
      "request": {
        "method": "PUT",
        "url": "http://localhost:8080/cqf-ruler/baseDstu3Observation/Observation-78294"
      }
    },
    {
      "fullUrl": "http://localhost:8080/cqf-ruler/baseDstu3DiagnosticReport/DiagnosticReport-78288",
      "resource": {
        "resourceType": "DiagnosticReport",
        "id": "DiagnosticReport-78288",
        "status": "final",
        "code": {
          "coding": [
            {
              "system": "http://loinc.org",
              "code": "8716-3",
              "display": "Vital Signs Panel"
            }
          ]
        },
        "subject": {
          "reference": "Patient/Patient-6523",
          "display": "Wendy Danielle Vaughn"
        },
        "context": {
          "reference": "Encounter/Encounter-536",
          "display": "Wellness Visit"
        },
        "effectivePeriod": {
          "start": "1992-03-27T00:00:00-05:00",
          "end": "1992-03-27T00:00:00-05:00"
        },
        "issued": "1992-03-27T00:00:00.000-05:00",
        "result": [
          {
            "reference": "Observation/Observation-78289",
            "display": "Height"
          },
          {
            "reference": "Observation/Observation-78290",
            "display": "Weight"
          },
          {
            "reference": "Observation/Observation-78291",
            "display": "BMI"
          },
          {
            "reference": "Observation/Observation-78292",
            "display": "Temperature"
          },
          {
            "reference": "Observation/Observation-78293",
            "display": "Systolic Blood Pressure"
          },
          {
            "reference": "Observation/Observation-78294",
            "display": "Diastolic Blood Pressure"
          }
        ]
      },
      "request": {
        "method": "PUT",
        "url": "http://localhost:8080/cqf-ruler/baseDstu3DiagnosticReport/DiagnosticReport-78288"
      }
    }
  ]
}