{
  "resourceType": "Bundle",
  "id": "Ross-Sheppard-Cobb-6548-Encounter-2332",
  "type": "transaction",
  "entry": [
    {
      "fullUrl": "http://localhost:8080/cqf-ruler/baseDstu3Encounter/Encounter-2332",
      "resource": {
        "resourceType": "Encounter",
        "id": "Encounter-2332",
        "status": "finished",
        "class": {
          "system": "http://hl7.org/fhir/encounter-class",
          "code": "outpatient",
          "display": "Inpatient"
        },
        "subject": {
          "reference": "Patient/Patient-6548",
          "display": "Ross Sheppard Cobb"
        },
        "participant": [
          {
            "period": {
              "start": "2011-12-21T20:00:00-05:00",
              "end": "2011-12-21T20:00:00-05:00"
            },
            "individual": {
              "reference": "Practitioner/Practitioner-2525",
              "display": "Kyle Christian Ballard MD"
            }
          }
        ],
        "period": {
          "start": "2011-12-21T20:00:00-05:00",
          "end": "2011-12-21T20:00:00-05:00"
        },
        "location": [
          {
            "location": {
              "reference": "Location/Location-1104",
              "display": "Bay Area Family Practice"
            }
          }
        ],
        "serviceProvider": {
          "reference": "Organization/Organization-1104",
          "display": "Bay Area Family Practice"
        }
      },
      "request": {
        "method": "PUT",
        "url": "http://localhost:8080/cqf-ruler/baseDstu3Encounter/Encounter-2332"
      }
    },
    {
      "fullUrl": "http://localhost:8080/cqf-ruler/baseDstu3Observation/Observation-497221",
      "resource": {
        "resourceType": "Observation",
        "id": "Observation-497221",
        "status": "final",
        "code": {
          "coding": [
            {
              "system": "http://loinc.org",
              "code": "8302-2",
              "display": "Height"
            }
          ]
        },
        "subject": {
          "reference": "Patient/Patient-6548",
          "display": "Ross Sheppard Cobb"
        },
        "context": {
          "reference": "Encounter/Encounter-2332",
          "display": "Wellness Visit"
        },
        "effectiveDateTime": "2011-12-21T20:00:00-05:00",
        "performer": [
          {
            "reference": "Practitioner/Practitioner-2525",
            "display": "Kyle Christian Ballard MD"
          }
        ],
        "valueQuantity": {
          "value": 50.0,
          "unit": "cm"
        }
      },
      "request": {
        "method": "PUT",
        "url": "http://localhost:8080/cqf-ruler/baseDstu3Observation/Observation-497221"
      }
    },
    {
      "fullUrl": "http://localhost:8080/cqf-ruler/baseDstu3Observation/Observation-497222",
      "resource": {
        "resourceType": "Observation",
        "id": "Observation-497222",
        "status": "final",
        "code": {
          "coding": [
            {
              "system": "http://loinc.org",
              "code": "29463-7",
              "display": "Weight"
            }
          ]
        },
        "subject": {
          "reference": "Patient/Patient-6548",
          "display": "Ross Sheppard Cobb"
        },
        "context": {
          "reference": "Encounter/Encounter-2332",
          "display": "Wellness Visit"
        },
        "effectiveDateTime": "2011-12-21T20:00:00-05:00",
        "performer": [
          {
            "reference": "Practitioner/Practitioner-2525",
            "display": "Kyle Christian Ballard MD"
          }
        ],
        "valueQuantity": {
          "value": 0.0,
          "unit": "kg"
        }
      },
      "request": {
        "method": "PUT",
        "url": "http://localhost:8080/cqf-ruler/baseDstu3Observation/Observation-497222"
      }
    },
    {
      "fullUrl": "http://localhost:8080/cqf-ruler/baseDstu3Observation/Observation-497223",
      "resource": {
        "resourceType": "Observation",
        "id": "Observation-497223",
        "status": "final",
        "code": {
          "coding": [
            {
              "system": "http://loinc.org",
              "code": "39156-5",
              "display": "BMI"
            }
          ]
        },
        "subject": {
          "reference": "Patient/Patient-6548",
          "display": "Ross Sheppard Cobb"
        },
        "context": {
          "reference": "Encounter/Encounter-2332",
          "display": "Wellness Visit"
        },
        "effectiveDateTime": "2011-12-21T20:00:00-05:00",
        "performer": [
          {
            "reference": "Practitioner/Practitioner-2525",
            "display": "Kyle Christian Ballard MD"
          }
        ],
        "valueQuantity": {
          "value": 0.0,
          "unit": "kg/m2"
        }
      },
      "request": {
        "method": "PUT",
        "url": "http://localhost:8080/cqf-ruler/baseDstu3Observation/Observation-497223"
      }
    },
    {
      "fullUrl": "http://localhost:8080/cqf-ruler/baseDstu3Observation/Observation-497224",
      "resource": {
        "resourceType": "Observation",
        "id": "Observation-497224",
        "status": "final",
        "code": {
          "coding": [
            {
              "system": "http://loinc.org",
              "code": "8310-5",
              "display": "Temperature"
            }
          ]
        },
        "subject": {
          "reference": "Patient/Patient-6548",
          "display": "Ross Sheppard Cobb"
        },
        "context": {
          "reference": "Encounter/Encounter-2332",
          "display": "Wellness Visit"
        },
        "effectiveDateTime": "2011-12-21T20:00:00-05:00",
        "performer": [
          {
            "reference": "Practitioner/Practitioner-2525",
            "display": "Kyle Christian Ballard MD"
          }
        ],
        "valueQuantity": {
          "value": 37.0,
          "unit": "C"
        }
      },
      "request": {
        "method": "PUT",
        "url": "http://localhost:8080/cqf-ruler/baseDstu3Observation/Observation-497224"
      }
    },
    {
      "fullUrl": "http://localhost:8080/cqf-ruler/baseDstu3Observation/Observation-497225",
      "resource": {
        "resourceType": "Observation",
        "id": "Observation-497225",
        "status": "final",
        "code": {
          "coding": [
            {
              "system": "http://loinc.org",
              "code": "8459-0",
              "display": "Systolic Blood Pressure"
            }
          ]
        },
        "subject": {
          "reference": "Patient/Patient-6548",
          "display": "Ross Sheppard Cobb"
        },
        "context": {
          "reference": "Encounter/Encounter-2332",
          "display": "Wellness Visit"
        },
        "effectiveDateTime": "2011-12-21T20:00:00-05:00",
        "performer": [
          {
            "reference": "Practitioner/Practitioner-2525",
            "display": "Kyle Christian Ballard MD"
          }
        ],
        "valueQuantity": {
          "value": 129.7193133714435,
          "unit": "mmHg"
        }
      },
      "request": {
        "method": "PUT",
        "url": "http://localhost:8080/cqf-ruler/baseDstu3Observation/Observation-497225"
      }
    },
    {
      "fullUrl": "http://localhost:8080/cqf-ruler/baseDstu3Observation/Observation-497226",
      "resource": {
        "resourceType": "Observation",
        "id": "Observation-497226",
        "status": "final",
        "code": {
          "coding": [
            {
              "system": "http://loinc.org",
              "code": "8453-3",
              "display": "Diastolic Blood Pressure"
            }
          ]
        },
        "subject": {
          "reference": "Patient/Patient-6548",
          "display": "Ross Sheppard Cobb"
        },
        "context": {
          "reference": "Encounter/Encounter-2332",
          "display": "Wellness Visit"
        },
        "effectiveDateTime": "2011-12-21T20:00:00-05:00",
        "performer": [
          {
            "reference": "Practitioner/Practitioner-2525",
            "display": "Kyle Christian Ballard MD"
          }
        ],
        "valueQuantity": {
          "value": 77.67618825958746,
          "unit": "mmHg"
        }
      },
      "request": {
        "method": "PUT",
        "url": "http://localhost:8080/cqf-ruler/baseDstu3Observation/Observation-497226"
      }
    },
    {
      "fullUrl": "http://localhost:8080/cqf-ruler/baseDstu3DiagnosticReport/DiagnosticReport-497220",
      "resource": {
        "resourceType": "DiagnosticReport",
        "id": "DiagnosticReport-497220",
        "status": "final",
        "code": {
          "coding": [
            {
              "system": "http://loinc.org",
              "code": "8716-3",
              "display": "Vital Signs Panel"
            }
          ]
        },
        "subject": {
          "reference": "Patient/Patient-6548",
          "display": "Ross Sheppard Cobb"
        },
        "context": {
          "reference": "Encounter/Encounter-2332",
          "display": "Wellness Visit"
        },
        "effectivePeriod": {
          "start": "2011-12-21T20:00:00-05:00",
          "end": "2011-12-21T20:00:00-05:00"
        },
        "issued": "2011-12-21T20:00:00.000-05:00",
        "result": [
          {
            "reference": "Observation/Observation-497221",
            "display": "Height"
          },
          {
            "reference": "Observation/Observation-497222",
            "display": "Weight"
          },
          {
            "reference": "Observation/Observation-497223",
            "display": "BMI"
          },
          {
            "reference": "Observation/Observation-497224",
            "display": "Temperature"
          },
          {
            "reference": "Observation/Observation-497225",
            "display": "Systolic Blood Pressure"
          },
          {
            "reference": "Observation/Observation-497226",
            "display": "Diastolic Blood Pressure"
          }
        ]
      },
      "request": {
        "method": "PUT",
        "url": "http://localhost:8080/cqf-ruler/baseDstu3DiagnosticReport/DiagnosticReport-497220"
      }
    }
  ]
}