{
  "resourceType": "Bundle",
  "id": "Ross Sheppard Cobb-6548-Encounter-2351",
  "type": "transaction",
  "entry": [
    {
      "fullUrl": "http://localhost:8080/cqf-ruler/baseDstu3/Encounter/Encounter-2351",
      "resource": {
        "resourceType": "Encounter",
        "id": "Encounter-2351",
        "status": "finished",
        "class": {
          "system": "http://hl7.org/fhir/encounter-class",
          "code": "outpatient",
          "display": "Inpatient"
        },
        "subject": {
          "reference": "Patient/Patient-6548",
          "display": "Ross Sheppard Cobb"
        },
        "participant": [
          {
            "period": {
              "start": "2011-12-22T02:00:00-05:00",
              "end": "2011-12-22T02:00:00-05:00"
            },
            "individual": {
              "reference": "Practitioner/Practitioner-2525",
              "display": "Kyle Christian Ballard MD"
            }
          }
        ],
        "period": {
          "start": "2011-12-22T02:00:00-05:00",
          "end": "2011-12-22T02:00:00-05:00"
        },
        "location": [
          {
            "location": {
              "reference": "Location/Location-1104",
              "display": "Bay Area Family Practice"
            }
          }
        ],
        "serviceProvider": {
          "reference": "Organization/Organization-1104",
          "display": "Bay Area Family Practice"
        }
      },
      "request": {
        "method": "PUT",
        "url": "http://localhost:8080/cqf-ruler/baseDstu3/Encounter/Encounter-2351"
      }
    },
    {
      "fullUrl": "http://localhost:8080/cqf-ruler/baseDstu3/Observation/Observation-497118",
      "resource": {
        "resourceType": "Observation",
        "id": "Observation-497118",
        "status": "final",
        "code": {
          "coding": [
            {
              "system": "http://loinc.org",
              "code": "8302-2",
              "display": "Height"
            }
          ]
        },
        "subject": {
          "reference": "Patient/Patient-6548",
          "display": "Ross Sheppard Cobb"
        },
        "context": {
          "reference": "Encounter/Encounter-2351",
          "display": "Bay Area Family Practice"
        },
        "effectiveDateTime": "2011-12-22T02:00:00-05:00",
        "performer": [
          {
            "reference": "Practitioner/Practitioner-2525",
            "display": "Kyle Christian Ballard MD"
          }
        ],
        "valueQuantity": {
          "value": 48.2,
          "unit": "cm"
        }
      },
      "request": {
        "method": "PUT",
        "url": "http://localhost:8080/cqf-ruler/baseDstu3/Observation/Observation-497118"
      }
    },
    {
      "fullUrl": "http://localhost:8080/cqf-ruler/baseDstu3/Observation/Observation-497119",
      "resource": {
        "resourceType": "Observation",
        "id": "Observation-497119",
        "status": "final",
        "code": {
          "coding": [
            {
              "system": "http://loinc.org",
              "code": "29463-7",
              "display": "Weight"
            }
          ]
        },
        "subject": {
          "reference": "Patient/Patient-6548",
          "display": "Ross Sheppard Cobb"
        },
        "context": {
          "reference": "Encounter/Encounter-2351",
          "display": "Bay Area Family Practice"
        },
        "effectiveDateTime": "2011-12-22T02:00:00-05:00",
        "performer": [
          {
            "reference": "Practitioner/Practitioner-2525",
            "display": "Kyle Christian Ballard MD"
          }
        ],
        "valueQuantity": {
          "value": 0.0,
          "unit": "kg"
        }
      },
      "request": {
        "method": "PUT",
        "url": "http://localhost:8080/cqf-ruler/baseDstu3/Observation/Observation-497119"
      }
    },
    {
      "fullUrl": "http://localhost:8080/cqf-ruler/baseDstu3/Observation/Observation-497120",
      "resource": {
        "resourceType": "Observation",
        "id": "Observation-497120",
        "status": "final",
        "code": {
          "coding": [
            {
              "system": "http://loinc.org",
              "code": "39156-5",
              "display": "BMI"
            }
          ]
        },
        "subject": {
          "reference": "Patient/Patient-6548",
          "display": "Ross Sheppard Cobb"
        },
        "context": {
          "reference": "Encounter/Encounter-2351",
          "display": "Bay Area Family Practice"
        },
        "effectiveDateTime": "2011-12-22T02:00:00-05:00",
        "performer": [
          {
            "reference": "Practitioner/Practitioner-2525",
            "display": "Kyle Christian Ballard MD"
          }
        ],
        "valueQuantity": {
          "value": 0.0,
          "unit": "kg/m2"
        }
      },
      "request": {
        "method": "PUT",
        "url": "http://localhost:8080/cqf-ruler/baseDstu3/Observation/Observation-497120"
      }
    },
    {
      "fullUrl": "http://localhost:8080/cqf-ruler/baseDstu3/Observation/Observation-497121",
      "resource": {
        "resourceType": "Observation",
        "id": "Observation-497121",
        "status": "final",
        "code": {
          "coding": [
            {
              "system": "http://loinc.org",
              "code": "8310-5",
              "display": "Temperature"
            }
          ]
        },
        "subject": {
          "reference": "Patient/Patient-6548",
          "display": "Ross Sheppard Cobb"
        },
        "context": {
          "reference": "Encounter/Encounter-2351",
          "display": "Bay Area Family Practice"
        },
        "effectiveDateTime": "2011-12-22T02:00:00-05:00",
        "performer": [
          {
            "reference": "Practitioner/Practitioner-2525",
            "display": "Kyle Christian Ballard MD"
          }
        ],
        "valueQuantity": {
          "value": 37.0,
          "unit": "C"
        }
      },
      "request": {
        "method": "PUT",
        "url": "http://localhost:8080/cqf-ruler/baseDstu3/Observation/Observation-497121"
      }
    },
    {
      "fullUrl": "http://localhost:8080/cqf-ruler/baseDstu3/Observation/Observation-497122",
      "resource": {
        "resourceType": "Observation",
        "id": "Observation-497122",
        "status": "final",
        "code": {
          "coding": [
            {
              "system": "http://loinc.org",
              "code": "8459-0",
              "display": "Systolic Blood Pressure"
            }
          ]
        },
        "subject": {
          "reference": "Patient/Patient-6548",
          "display": "Ross Sheppard Cobb"
        },
        "context": {
          "reference": "Encounter/Encounter-2351",
          "display": "Bay Area Family Practice"
        },
        "effectiveDateTime": "2011-12-22T02:00:00-05:00",
        "performer": [
          {
            "reference": "Practitioner/Practitioner-2525",
            "display": "Kyle Christian Ballard MD"
          }
        ],
        "valueQuantity": {
          "value": 102.12583818817458,
          "unit": "mmHg"
        }
      },
      "request": {
        "method": "PUT",
        "url": "http://localhost:8080/cqf-ruler/baseDstu3/Observation/Observation-497122"
      }
    },
    {
      "fullUrl": "http://localhost:8080/cqf-ruler/baseDstu3/Observation/Observation-497123",
      "resource": {
        "resourceType": "Observation",
        "id": "Observation-497123",
        "status": "final",
        "code": {
          "coding": [
            {
              "system": "http://loinc.org",
              "code": "8453-3",
              "display": "Diastolic Blood Pressure"
            }
          ]
        },
        "subject": {
          "reference": "Patient/Patient-6548",
          "display": "Ross Sheppard Cobb"
        },
        "context": {
          "reference": "Encounter/Encounter-2351",
          "display": "Bay Area Family Practice"
        },
        "effectiveDateTime": "2011-12-22T02:00:00-05:00",
        "performer": [
          {
            "reference": "Practitioner/Practitioner-2525",
            "display": "Kyle Christian Ballard MD"
          }
        ],
        "valueQuantity": {
          "value": 76.89088097623508,
          "unit": "mmHg"
        }
      },
      "request": {
        "method": "PUT",
        "url": "http://localhost:8080/cqf-ruler/baseDstu3/Observation/Observation-497123"
      }
    },
    {
      "fullUrl": "http://localhost:8080/cqf-ruler/baseDstu3/DiagnosticReport/DiagnosticReport-497117",
      "resource": {
        "resourceType": "DiagnosticReport",
        "id": "DiagnosticReport-497117",
        "status": "final",
        "code": {
          "coding": [
            {
              "system": "http://loinc.org",
              "code": "8716-3",
              "display": "Vital Signs Panel"
            }
          ]
        },
        "subject": {
          "reference": "Patient/Patient-6548",
          "display": "Ross Sheppard Cobb"
        },
        "context": {
          "reference": "Encounter/Encounter-2351",
          "display": "Bay Area Family Practice"
        },
        "effectivePeriod": {
          "start": "2011-12-22T02:00:00-05:00",
          "end": "2011-12-22T02:00:00-05:00"
        },
        "issued": "2011-12-22T02:00:00.000-05:00",
        "result": [
          {
            "reference": "Observation/Observation-497118",
            "display": "Height"
          },
          {
            "reference": "Observation/Observation-497119",
            "display": "Weight"
          },
          {
            "reference": "Observation/Observation-497120",
            "display": "BMI"
          },
          {
            "reference": "Observation/Observation-497121",
            "display": "Temperature"
          },
          {
            "reference": "Observation/Observation-497122",
            "display": "Systolic Blood Pressure"
          },
          {
            "reference": "Observation/Observation-497123",
            "display": "Diastolic Blood Pressure"
          }
        ]
      },
      "request": {
        "method": "PUT",
        "url": "http://localhost:8080/cqf-ruler/baseDstu3/DiagnosticReport/DiagnosticReport-497117"
      }
    }
  ]
}