{
  "resourceType": "Bundle",
  "id": "Ross Sheppard Cobb-6548-Encounter-2205",
  "type": "transaction",
  "entry": [
    {
      "fullUrl": "http://localhost:8080/cqf-ruler/baseDstu3/Encounter/Encounter-2205",
      "resource": {
        "resourceType": "Encounter",
        "id": "Encounter-2205",
        "status": "finished",
        "class": {
          "system": "http://hl7.org/fhir/encounter-class",
          "code": "outpatient",
          "display": "Inpatient"
        },
        "subject": {
          "reference": "Patient/Patient-6548",
          "display": "Ross Sheppard Cobb"
        },
        "participant": [
          {
            "period": {
              "start": "2010-11-21T16:00:00-05:00",
              "end": "2010-11-21T16:00:00-05:00"
            },
            "individual": {
              "reference": "Practitioner/Practitioner-2525",
              "display": "Kyle Christian Ballard MD"
            }
          }
        ],
        "period": {
          "start": "2010-11-21T16:00:00-05:00",
          "end": "2010-11-21T16:00:00-05:00"
        },
        "location": [
          {
            "location": {
              "reference": "Location/Location-1104",
              "display": "Bay Area Family Practice"
            }
          }
        ],
        "serviceProvider": {
          "reference": "Organization/Organization-1104",
          "display": "Bay Area Family Practice"
        }
      },
      "request": {
        "method": "PUT",
        "url": "http://localhost:8080/cqf-ruler/baseDstu3/Encounter/Encounter-2205"
      }
    },
    {
      "fullUrl": "http://localhost:8080/cqf-ruler/baseDstu3/Observation/Observation-473523",
      "resource": {
        "resourceType": "Observation",
        "id": "Observation-473523",
        "status": "final",
        "code": {
          "coding": [
            {
              "system": "http://loinc.org",
              "code": "8302-2",
              "display": "Height"
            }
          ]
        },
        "subject": {
          "reference": "Patient/Patient-6548",
          "display": "Ross Sheppard Cobb"
        },
        "context": {
          "reference": "Encounter/Encounter-2205",
          "display": "Bay Area Family Practice"
        },
        "effectiveDateTime": "2010-11-21T16:00:00-05:00",
        "performer": [
          {
            "reference": "Practitioner/Practitioner-2525",
            "display": "Kyle Christian Ballard MD"
          }
        ],
        "valueQuantity": {
          "value": 0.0,
          "unit": "cm"
        }
      },
      "request": {
        "method": "PUT",
        "url": "http://localhost:8080/cqf-ruler/baseDstu3/Observation/Observation-473523"
      }
    },
    {
      "fullUrl": "http://localhost:8080/cqf-ruler/baseDstu3/Observation/Observation-473524",
      "resource": {
        "resourceType": "Observation",
        "id": "Observation-473524",
        "status": "final",
        "code": {
          "coding": [
            {
              "system": "http://loinc.org",
              "code": "29463-7",
              "display": "Weight"
            }
          ]
        },
        "subject": {
          "reference": "Patient/Patient-6548",
          "display": "Ross Sheppard Cobb"
        },
        "context": {
          "reference": "Encounter/Encounter-2205",
          "display": "Bay Area Family Practice"
        },
        "effectiveDateTime": "2010-11-21T16:00:00-05:00",
        "performer": [
          {
            "reference": "Practitioner/Practitioner-2525",
            "display": "Kyle Christian Ballard MD"
          }
        ],
        "valueQuantity": {
          "value": 0.0,
          "unit": "kg"
        }
      },
      "request": {
        "method": "PUT",
        "url": "http://localhost:8080/cqf-ruler/baseDstu3/Observation/Observation-473524"
      }
    },
    {
      "fullUrl": "http://localhost:8080/cqf-ruler/baseDstu3/Observation/Observation-473525",
      "resource": {
        "resourceType": "Observation",
        "id": "Observation-473525",
        "status": "final",
        "code": {
          "coding": [
            {
              "system": "http://loinc.org",
              "code": "39156-5",
              "display": "BMI"
            }
          ]
        },
        "subject": {
          "reference": "Patient/Patient-6548",
          "display": "Ross Sheppard Cobb"
        },
        "context": {
          "reference": "Encounter/Encounter-2205",
          "display": "Bay Area Family Practice"
        },
        "effectiveDateTime": "2010-11-21T16:00:00-05:00",
        "performer": [
          {
            "reference": "Practitioner/Practitioner-2525",
            "display": "Kyle Christian Ballard MD"
          }
        ],
        "valueQuantity": {
          "value": 0.0,
          "unit": "kg/m2"
        }
      },
      "request": {
        "method": "PUT",
        "url": "http://localhost:8080/cqf-ruler/baseDstu3/Observation/Observation-473525"
      }
    },
    {
      "fullUrl": "http://localhost:8080/cqf-ruler/baseDstu3/Observation/Observation-473526",
      "resource": {
        "resourceType": "Observation",
        "id": "Observation-473526",
        "status": "final",
        "code": {
          "coding": [
            {
              "system": "http://loinc.org",
              "code": "8310-5",
              "display": "Temperature"
            }
          ]
        },
        "subject": {
          "reference": "Patient/Patient-6548",
          "display": "Ross Sheppard Cobb"
        },
        "context": {
          "reference": "Encounter/Encounter-2205",
          "display": "Bay Area Family Practice"
        },
        "effectiveDateTime": "2010-11-21T16:00:00-05:00",
        "performer": [
          {
            "reference": "Practitioner/Practitioner-2525",
            "display": "Kyle Christian Ballard MD"
          }
        ],
        "valueQuantity": {
          "value": 37.0,
          "unit": "C"
        }
      },
      "request": {
        "method": "PUT",
        "url": "http://localhost:8080/cqf-ruler/baseDstu3/Observation/Observation-473526"
      }
    },
    {
      "fullUrl": "http://localhost:8080/cqf-ruler/baseDstu3/Observation/Observation-473527",
      "resource": {
        "resourceType": "Observation",
        "id": "Observation-473527",
        "status": "final",
        "code": {
          "coding": [
            {
              "system": "http://loinc.org",
              "code": "8459-0",
              "display": "Systolic Blood Pressure"
            }
          ]
        },
        "subject": {
          "reference": "Patient/Patient-6548",
          "display": "Ross Sheppard Cobb"
        },
        "context": {
          "reference": "Encounter/Encounter-2205",
          "display": "Bay Area Family Practice"
        },
        "effectiveDateTime": "2010-11-21T16:00:00-05:00",
        "performer": [
          {
            "reference": "Practitioner/Practitioner-2525",
            "display": "Kyle Christian Ballard MD"
          }
        ],
        "valueQuantity": {
          "value": 102.33648091669075,
          "unit": "mmHg"
        }
      },
      "request": {
        "method": "PUT",
        "url": "http://localhost:8080/cqf-ruler/baseDstu3/Observation/Observation-473527"
      }
    },
    {
      "fullUrl": "http://localhost:8080/cqf-ruler/baseDstu3/Observation/Observation-473528",
      "resource": {
        "resourceType": "Observation",
        "id": "Observation-473528",
        "status": "final",
        "code": {
          "coding": [
            {
              "system": "http://loinc.org",
              "code": "8453-3",
              "display": "Diastolic Blood Pressure"
            }
          ]
        },
        "subject": {
          "reference": "Patient/Patient-6548",
          "display": "Ross Sheppard Cobb"
        },
        "context": {
          "reference": "Encounter/Encounter-2205",
          "display": "Bay Area Family Practice"
        },
        "effectiveDateTime": "2010-11-21T16:00:00-05:00",
        "performer": [
          {
            "reference": "Practitioner/Practitioner-2525",
            "display": "Kyle Christian Ballard MD"
          }
        ],
        "valueQuantity": {
          "value": 76.98571357206775,
          "unit": "mmHg"
        }
      },
      "request": {
        "method": "PUT",
        "url": "http://localhost:8080/cqf-ruler/baseDstu3/Observation/Observation-473528"
      }
    },
    {
      "fullUrl": "http://localhost:8080/cqf-ruler/baseDstu3/DiagnosticReport/DiagnosticReport-473522",
      "resource": {
        "resourceType": "DiagnosticReport",
        "id": "DiagnosticReport-473522",
        "status": "final",
        "code": {
          "coding": [
            {
              "system": "http://loinc.org",
              "code": "8716-3",
              "display": "Vital Signs Panel"
            }
          ]
        },
        "subject": {
          "reference": "Patient/Patient-6548",
          "display": "Ross Sheppard Cobb"
        },
        "context": {
          "reference": "Encounter/Encounter-2205",
          "display": "Bay Area Family Practice"
        },
        "effectivePeriod": {
          "start": "2010-11-21T16:00:00-05:00",
          "end": "2010-11-21T16:00:00-05:00"
        },
        "issued": "2010-11-21T16:00:00.000-05:00",
        "result": [
          {
            "reference": "Observation/Observation-473523",
            "display": "Height"
          },
          {
            "reference": "Observation/Observation-473524",
            "display": "Weight"
          },
          {
            "reference": "Observation/Observation-473525",
            "display": "BMI"
          },
          {
            "reference": "Observation/Observation-473526",
            "display": "Temperature"
          },
          {
            "reference": "Observation/Observation-473527",
            "display": "Systolic Blood Pressure"
          },
          {
            "reference": "Observation/Observation-473528",
            "display": "Diastolic Blood Pressure"
          }
        ]
      },
      "request": {
        "method": "PUT",
        "url": "http://localhost:8080/cqf-ruler/baseDstu3/DiagnosticReport/DiagnosticReport-473522"
      }
    }
  ]
}