{
  "resourceType": "Bundle",
  "id": "Luis-Norris-Ayala-6521-Encounter-2400",
  "type": "transaction",
  "entry": [
    {
      "fullUrl": "http://localhost:8080/cqf-ruler/baseDstu3/Encounter/Encounter-2400",
      "resource": {
        "resourceType": "Encounter",
        "id": "Encounter-2400",
        "status": "finished",
        "class": {
          "system": "http://hl7.org/fhir/encounter-class",
          "code": "outpatient",
          "display": "Inpatient"
        },
        "subject": {
          "reference": "Patient/Patient-6521",
          "display": "Luis Norris Ayala"
        },
        "participant": [
          {
            "period": {
              "start": "2014-02-14T00:00:00-05:00",
              "end": "2014-02-14T00:00:00-05:00"
            },
            "individual": {
              "reference": "Practitioner/Practitioner-2518",
              "display": "Jane Rosemary Saunders MD"
            }
          }
        ],
        "period": {
          "start": "2014-02-14T00:00:00-05:00",
          "end": "2014-02-14T00:00:00-05:00"
        },
        "location": [
          {
            "location": {
              "reference": "Location/Location-1103",
              "display": "Acme Medical Center"
            }
          }
        ],
        "serviceProvider": {
          "reference": "Organization/Organization-1103",
          "display": "Acme Medical Center"
        }
      },
      "request": {
        "method": "PUT",
        "url": "http://localhost:8080/cqf-ruler/baseDstu3/Encounter/Encounter-2400"
      }
    },
    {
      "fullUrl": "http://localhost:8080/cqf-ruler/baseDstu3/Immunization/Immunization-518891",
      "resource": {
        "resourceType": "Immunization",
        "id": "Immunization-518891",
        "status": "completed",
        "notGiven": false,
        "vaccineCode": {
          "coding": [
            {
              "system": "http://hl7.org/fhir/sid/cvx",
              "code": "140",
              "display": "Influenza, seasonal, injectable, preservative free"
            }
          ]
        },
        "patient": {
          "reference": "Patient/Patient-6521",
          "display": "Luis Norris Ayala"
        },
        "date": "2014-02-14T00:00:00-05:00",
        "primarySource": true,
        "location": {
          "reference": "Location/Location-1103",
          "display": "Acme Medical Center"
        },
        "practitioner": [
          {
            "actor": {
              "reference": "Practitioner/Practitioner-2518",
              "display": "Jane Rosemary Saunders MD"
            }
          }
        ]
      },
      "request": {
        "method": "PUT",
        "url": "http://localhost:8080/cqf-ruler/baseDstu3/Immunization/Immunization-518891"
      }
    },
    {
      "fullUrl": "http://localhost:8080/cqf-ruler/baseDstu3/Observation/Observation-572784",
      "resource": {
        "resourceType": "Observation",
        "id": "Observation-572784",
        "status": "final",
        "code": {
          "coding": [
            {
              "system": "http://loinc.org",
              "code": "8480-6",
              "display": "Systolic blood pressure"
            }
          ]
        },
        "subject": {
          "reference": "Patient/Patient-6521",
          "display": "Luis Norris Ayala"
        },
        "context": {
          "reference": "Encounter/Encounter-2400",
          "display": "Wellness Visit"
        },
        "effectivePeriod": {
          "start": "2014-02-14T00:00:00-05:00",
          "end": "2014-02-14T00:00:00-05:00"
        },
        "performer": [
          {
            "reference": "Practitioner/Practitioner-2518",
            "display": "Jane Rosemary Saunders MD"
          }
        ],
        "valueQuantity": {
          "value": 136.62532273127476,
          "unit": "mmHg"
        }
      },
      "request": {
        "method": "PUT",
        "url": "http://localhost:8080/cqf-ruler/baseDstu3/Observation/Observation-572784"
      }
    },
    {
      "fullUrl": "http://localhost:8080/cqf-ruler/baseDstu3/Observation/Observation-572785",
      "resource": {
        "resourceType": "Observation",
        "id": "Observation-572785",
        "status": "final",
        "code": {
          "coding": [
            {
              "system": "http://loinc.org",
              "code": "8462-4",
              "display": "Diastolic blood pressure"
            }
          ]
        },
        "subject": {
          "reference": "Patient/Patient-6521",
          "display": "Luis Norris Ayala"
        },
        "context": {
          "reference": "Encounter/Encounter-2400",
          "display": "Wellness Visit"
        },
        "effectivePeriod": {
          "start": "2014-02-14T00:00:00-05:00",
          "end": "2014-02-14T00:00:00-05:00"
        },
        "performer": [
          {
            "reference": "Practitioner/Practitioner-2518",
            "display": "Jane Rosemary Saunders MD"
          }
        ],
        "valueQuantity": {
          "value": 68.17438938780202,
          "unit": "mmHg"
        }
      },
      "request": {
        "method": "PUT",
        "url": "http://localhost:8080/cqf-ruler/baseDstu3/Observation/Observation-572785"
      }
    },
    {
      "fullUrl": "http://localhost:8080/cqf-ruler/baseDstu3/Observation/Observation-572786",
      "resource": {
        "resourceType": "Observation",
        "id": "Observation-572786",
        "status": "final",
        "code": {
          "coding": [
            {
              "system": "http://loinc.org",
              "code": "8302-2",
              "display": "Body Height"
            }
          ]
        },
        "subject": {
          "reference": "Patient/Patient-6521",
          "display": "Luis Norris Ayala"
        },
        "context": {
          "reference": "Encounter/Encounter-2400",
          "display": "Wellness Visit"
        },
        "effectivePeriod": {
          "start": "2014-02-14T00:00:00-05:00",
          "end": "2014-02-14T00:00:00-05:00"
        },
        "performer": [
          {
            "reference": "Practitioner/Practitioner-2518",
            "display": "Jane Rosemary Saunders MD"
          }
        ],
        "valueQuantity": {
          "value": 176.8,
          "unit": "cm"
        }
      },
      "request": {
        "method": "PUT",
        "url": "http://localhost:8080/cqf-ruler/baseDstu3/Observation/Observation-572786"
      }
    },
    {
      "fullUrl": "http://localhost:8080/cqf-ruler/baseDstu3/Observation/Observation-572787",
      "resource": {
        "resourceType": "Observation",
        "id": "Observation-572787",
        "status": "final",
        "code": {
          "coding": [
            {
              "system": "http://loinc.org",
              "code": "29463-7",
              "display": "Body Weight"
            }
          ]
        },
        "subject": {
          "reference": "Patient/Patient-6521",
          "display": "Luis Norris Ayala"
        },
        "context": {
          "reference": "Encounter/Encounter-2400",
          "display": "Wellness Visit"
        },
        "effectivePeriod": {
          "start": "2014-02-14T00:00:00-05:00",
          "end": "2014-02-14T00:00:00-05:00"
        },
        "performer": [
          {
            "reference": "Practitioner/Practitioner-2518",
            "display": "Jane Rosemary Saunders MD"
          }
        ],
        "valueQuantity": {
          "value": 118.80399398385038,
          "unit": "kg"
        }
      },
      "request": {
        "method": "PUT",
        "url": "http://localhost:8080/cqf-ruler/baseDstu3/Observation/Observation-572787"
      }
    },
    {
      "fullUrl": "http://localhost:8080/cqf-ruler/baseDstu3/Observation/Observation-572788",
      "resource": {
        "resourceType": "Observation",
        "id": "Observation-572788",
        "status": "final",
        "code": {
          "coding": [
            {
              "system": "http://loinc.org",
              "code": "39156-5",
              "display": "Body Mass Index"
            }
          ]
        },
        "subject": {
          "reference": "Patient/Patient-6521",
          "display": "Luis Norris Ayala"
        },
        "context": {
          "reference": "Encounter/Encounter-2400",
          "display": "Wellness Visit"
        },
        "effectivePeriod": {
          "start": "2014-02-14T00:00:00-05:00",
          "end": "2014-02-14T00:00:00-05:00"
        },
        "performer": [
          {
            "reference": "Practitioner/Practitioner-2518",
            "display": "Jane Rosemary Saunders MD"
          }
        ],
        "valueQuantity": {
          "value": 38.00725632148527,
          "unit": "kg/m2"
        }
      },
      "request": {
        "method": "PUT",
        "url": "http://localhost:8080/cqf-ruler/baseDstu3/Observation/Observation-572788"
      }
    },
    {
      "fullUrl": "http://localhost:8080/cqf-ruler/baseDstu3/Observation/Observation-572791",
      "resource": {
        "resourceType": "Observation",
        "id": "Observation-572791",
        "status": "final",
        "category": [
          {
            "coding": [
              {
                "system": "http://hl7.org/fhir/observation-category",
                "code": "vital-signs",
                "display": "vital-signs"
              }
            ]
          }
        ],
        "code": {
          "coding": [
            {
              "system": "http://loinc.org",
              "code": "55284-4",
              "display": "Blood Pressure"
            }
          ]
        },
        "subject": {
          "reference": "Patient/Patient-6521",
          "display": "Luis Norris Ayala"
        },
        "context": {
          "reference": "Encounter/Encounter-2400",
          "display": "Wellness Visit"
        },
        "effectivePeriod": {
          "start": "2014-02-14T00:00:00-05:00",
          "end": "2014-02-14T00:00:00-05:00"
        },
        "valueQuantity": {
          "value": 68.17438938780202,
          "unit": "mmHg"
        },
        "component": [
          {
            "code": {
              "coding": [
                {
                  "system": "http://loinc.org",
                  "code": "8480-6",
                  "display": "Systolic Blood Pressure"
                }
              ]
            }
          },
          {
            "code": {
              "coding": [
                {
                  "system": "http://loinc.org",
                  "code": "8462-4",
                  "display": "Diastolic Blood Pressure"
                }
              ]
            }
          }
        ]
      },
      "request": {
        "method": "PUT",
        "url": "http://localhost:8080/cqf-ruler/baseDstu3/Observation/Observation-572791"
      }
    },
    {
      "fullUrl": "http://localhost:8080/cqf-ruler/baseDstu3/Observation/Observation-572792",
      "resource": {
        "resourceType": "Observation",
        "id": "Observation-572792",
        "status": "final",
        "code": {
          "coding": [
            {
              "system": "http://loinc.org",
              "code": "4548-4",
              "display": "Hemoglobin A1c/Hemoglobin.total in Blood"
            }
          ]
        },
        "subject": {
          "reference": "Patient/Patient-6521",
          "display": "Luis Norris Ayala"
        },
        "context": {
          "reference": "Encounter/Encounter-2400",
          "display": "Wellness Visit"
        },
        "effectivePeriod": {
          "start": "2014-02-14T00:00:00-05:00",
          "end": "2014-02-14T00:00:00-05:00"
        },
        "performer": [
          {
            "reference": "Practitioner/Practitioner-2518",
            "display": "Jane Rosemary Saunders MD"
          }
        ],
        "valueQuantity": {
          "value": 5.57795966047631,
          "unit": "%"
        }
      },
      "request": {
        "method": "PUT",
        "url": "http://localhost:8080/cqf-ruler/baseDstu3/Observation/Observation-572792"
      }
    },
    {
      "fullUrl": "http://localhost:8080/cqf-ruler/baseDstu3/Observation/Observation-572793",
      "resource": {
        "resourceType": "Observation",
        "id": "Observation-572793",
        "status": "final",
        "code": {
          "coding": [
            {
              "system": "http://loinc.org",
              "code": "2339-0",
              "display": "Glucose"
            }
          ]
        },
        "subject": {
          "reference": "Patient/Patient-6521",
          "display": "Luis Norris Ayala"
        },
        "context": {
          "reference": "Encounter/Encounter-2400",
          "display": "Wellness Visit"
        },
        "effectivePeriod": {
          "start": "2014-02-14T00:00:00-05:00",
          "end": "2014-02-14T00:00:00-05:00"
        },
        "performer": [
          {
            "reference": "Practitioner/Practitioner-2518",
            "display": "Jane Rosemary Saunders MD"
          }
        ],
        "valueQuantity": {
          "value": 87.35553002182033,
          "unit": "mg/dL"
        }
      },
      "request": {
        "method": "PUT",
        "url": "http://localhost:8080/cqf-ruler/baseDstu3/Observation/Observation-572793"
      }
    },
    {
      "fullUrl": "http://localhost:8080/cqf-ruler/baseDstu3/Observation/Observation-572794",
      "resource": {
        "resourceType": "Observation",
        "id": "Observation-572794",
        "status": "final",
        "code": {
          "coding": [
            {
              "system": "http://loinc.org",
              "code": "6299-2",
              "display": "Urea Nitrogen"
            }
          ]
        },
        "subject": {
          "reference": "Patient/Patient-6521",
          "display": "Luis Norris Ayala"
        },
        "context": {
          "reference": "Encounter/Encounter-2400",
          "display": "Wellness Visit"
        },
        "effectivePeriod": {
          "start": "2014-02-14T00:00:00-05:00",
          "end": "2014-02-14T00:00:00-05:00"
        },
        "performer": [
          {
            "reference": "Practitioner/Practitioner-2518",
            "display": "Jane Rosemary Saunders MD"
          }
        ],
        "valueQuantity": {
          "value": 10.960202665902788,
          "unit": "mg/dL"
        }
      },
      "request": {
        "method": "PUT",
        "url": "http://localhost:8080/cqf-ruler/baseDstu3/Observation/Observation-572794"
      }
    },
    {
      "fullUrl": "http://localhost:8080/cqf-ruler/baseDstu3/Observation/Observation-572795",
      "resource": {
        "resourceType": "Observation",
        "id": "Observation-572795",
        "status": "final",
        "code": {
          "coding": [
            {
              "system": "http://loinc.org",
              "code": "38483-4",
              "display": "Creatinine"
            }
          ]
        },
        "subject": {
          "reference": "Patient/Patient-6521",
          "display": "Luis Norris Ayala"
        },
        "context": {
          "reference": "Encounter/Encounter-2400",
          "display": "Wellness Visit"
        },
        "effectivePeriod": {
          "start": "2014-02-14T00:00:00-05:00",
          "end": "2014-02-14T00:00:00-05:00"
        },
        "performer": [
          {
            "reference": "Practitioner/Practitioner-2518",
            "display": "Jane Rosemary Saunders MD"
          }
        ],
        "valueQuantity": {
          "value": 0.0924291664056389,
          "unit": "mg/dL"
        }
      },
      "request": {
        "method": "PUT",
        "url": "http://localhost:8080/cqf-ruler/baseDstu3/Observation/Observation-572795"
      }
    },
    {
      "fullUrl": "http://localhost:8080/cqf-ruler/baseDstu3/Observation/Observation-572796",
      "resource": {
        "resourceType": "Observation",
        "id": "Observation-572796",
        "status": "final",
        "code": {
          "coding": [
            {
              "system": "http://loinc.org",
              "code": "49765-1",
              "display": "Calcium"
            }
          ]
        },
        "subject": {
          "reference": "Patient/Patient-6521",
          "display": "Luis Norris Ayala"
        },
        "context": {
          "reference": "Encounter/Encounter-2400",
          "display": "Wellness Visit"
        },
        "effectivePeriod": {
          "start": "2014-02-14T00:00:00-05:00",
          "end": "2014-02-14T00:00:00-05:00"
        },
        "performer": [
          {
            "reference": "Practitioner/Practitioner-2518",
            "display": "Jane Rosemary Saunders MD"
          }
        ],
        "valueQuantity": {
          "value": 1.3053287036707315,
          "unit": "mmol/L"
        }
      },
      "request": {
        "method": "PUT",
        "url": "http://localhost:8080/cqf-ruler/baseDstu3/Observation/Observation-572796"
      }
    },
    {
      "fullUrl": "http://localhost:8080/cqf-ruler/baseDstu3/Observation/Observation-572797",
      "resource": {
        "resourceType": "Observation",
        "id": "Observation-572797",
        "status": "final",
        "code": {
          "coding": [
            {
              "system": "http://loinc.org",
              "code": "2947-0",
              "display": "Sodium"
            }
          ]
        },
        "subject": {
          "reference": "Patient/Patient-6521",
          "display": "Luis Norris Ayala"
        },
        "context": {
          "reference": "Encounter/Encounter-2400",
          "display": "Wellness Visit"
        },
        "effectivePeriod": {
          "start": "2014-02-14T00:00:00-05:00",
          "end": "2014-02-14T00:00:00-05:00"
        },
        "performer": [
          {
            "reference": "Practitioner/Practitioner-2518",
            "display": "Jane Rosemary Saunders MD"
          }
        ],
        "valueQuantity": {
          "value": 138.49754489002152,
          "unit": "mmol/L"
        }
      },
      "request": {
        "method": "PUT",
        "url": "http://localhost:8080/cqf-ruler/baseDstu3/Observation/Observation-572797"
      }
    },
    {
      "fullUrl": "http://localhost:8080/cqf-ruler/baseDstu3/Observation/Observation-572798",
      "resource": {
        "resourceType": "Observation",
        "id": "Observation-572798",
        "status": "final",
        "code": {
          "coding": [
            {
              "system": "http://loinc.org",
              "code": "6298-4",
              "display": "Potassium"
            }
          ]
        },
        "subject": {
          "reference": "Patient/Patient-6521",
          "display": "Luis Norris Ayala"
        },
        "context": {
          "reference": "Encounter/Encounter-2400",
          "display": "Wellness Visit"
        },
        "effectivePeriod": {
          "start": "2014-02-14T00:00:00-05:00",
          "end": "2014-02-14T00:00:00-05:00"
        },
        "performer": [
          {
            "reference": "Practitioner/Practitioner-2518",
            "display": "Jane Rosemary Saunders MD"
          }
        ],
        "valueQuantity": {
          "value": 3.9518411240162727,
          "unit": "mmol/L"
        }
      },
      "request": {
        "method": "PUT",
        "url": "http://localhost:8080/cqf-ruler/baseDstu3/Observation/Observation-572798"
      }
    },
    {
      "fullUrl": "http://localhost:8080/cqf-ruler/baseDstu3/Observation/Observation-572799",
      "resource": {
        "resourceType": "Observation",
        "id": "Observation-572799",
        "status": "final",
        "code": {
          "coding": [
            {
              "system": "http://loinc.org",
              "code": "2069-3",
              "display": "Chloride"
            }
          ]
        },
        "subject": {
          "reference": "Patient/Patient-6521",
          "display": "Luis Norris Ayala"
        },
        "context": {
          "reference": "Encounter/Encounter-2400",
          "display": "Wellness Visit"
        },
        "effectivePeriod": {
          "start": "2014-02-14T00:00:00-05:00",
          "end": "2014-02-14T00:00:00-05:00"
        },
        "performer": [
          {
            "reference": "Practitioner/Practitioner-2518",
            "display": "Jane Rosemary Saunders MD"
          }
        ],
        "valueQuantity": {
          "value": 108.29107939769273,
          "unit": "mmol/L"
        }
      },
      "request": {
        "method": "PUT",
        "url": "http://localhost:8080/cqf-ruler/baseDstu3/Observation/Observation-572799"
      }
    },
    {
      "fullUrl": "http://localhost:8080/cqf-ruler/baseDstu3/Observation/Observation-572800",
      "resource": {
        "resourceType": "Observation",
        "id": "Observation-572800",
        "status": "final",
        "code": {
          "coding": [
            {
              "system": "http://loinc.org",
              "code": "20565-8",
              "display": "Carbon Dioxide"
            }
          ]
        },
        "subject": {
          "reference": "Patient/Patient-6521",
          "display": "Luis Norris Ayala"
        },
        "context": {
          "reference": "Encounter/Encounter-2400",
          "display": "Wellness Visit"
        },
        "effectivePeriod": {
          "start": "2014-02-14T00:00:00-05:00",
          "end": "2014-02-14T00:00:00-05:00"
        },
        "performer": [
          {
            "reference": "Practitioner/Practitioner-2518",
            "display": "Jane Rosemary Saunders MD"
          }
        ],
        "valueQuantity": {
          "value": 20.150069421636747,
          "unit": "mmol/L"
        }
      },
      "request": {
        "method": "PUT",
        "url": "http://localhost:8080/cqf-ruler/baseDstu3/Observation/Observation-572800"
      }
    },
    {
      "fullUrl": "http://localhost:8080/cqf-ruler/baseDstu3/DiagnosticReport/DiagnosticReport-572801",
      "resource": {
        "resourceType": "DiagnosticReport",
        "id": "DiagnosticReport-572801",
        "status": "final",
        "code": {
          "coding": [
            {
              "system": "http://loinc.org",
              "code": "51990-0",
              "display": "Basic Metabolic Panel"
            }
          ]
        },
        "subject": {
          "reference": "Patient/Patient-6521",
          "display": "Luis Norris Ayala"
        },
        "context": {
          "reference": "Encounter/Encounter-2400",
          "display": "Wellness Visit"
        },
        "effectivePeriod": {
          "start": "2014-02-14T00:00:00-05:00",
          "end": "2014-02-14T00:00:00-05:00"
        },
        "issued": "2014-02-14T00:00:00.000-05:00",
        "result": [
          {
            "reference": "Observation/Observation-572793",
            "display": "Record_Glucose"
          },
          {
            "reference": "Observation/Observation-572794",
            "display": "Record_UreaNitrogen"
          },
          {
            "reference": "Observation/Observation-572795",
            "display": "Record_Creatinine"
          },
          {
            "reference": "Observation/Observation-572796",
            "display": "Record_Calcium"
          },
          {
            "reference": "Observation/Observation-572797",
            "display": "Record_Sodium"
          },
          {
            "reference": "Observation/Observation-572798",
            "display": "Record_Potassium"
          },
          {
            "reference": "Observation/Observation-572799",
            "display": "Record_Chloride"
          },
          {
            "reference": "Observation/Observation-572800",
            "display": "Record_CO2"
          }
        ]
      },
      "request": {
        "method": "PUT",
        "url": "http://localhost:8080/cqf-ruler/baseDstu3/DiagnosticReport/DiagnosticReport-572801"
      }
    },
    {
      "fullUrl": "http://localhost:8080/cqf-ruler/baseDstu3/Observation/Observation-572802",
      "resource": {
        "resourceType": "Observation",
        "id": "Observation-572802",
        "status": "final",
        "code": {
          "coding": [
            {
              "system": "http://loinc.org",
              "code": "2093-3",
              "display": "Total Cholesterol"
            }
          ]
        },
        "subject": {
          "reference": "Patient/Patient-6521",
          "display": "Luis Norris Ayala"
        },
        "context": {
          "reference": "Encounter/Encounter-2400",
          "display": "Wellness Visit"
        },
        "effectivePeriod": {
          "start": "2014-02-14T00:00:00-05:00",
          "end": "2014-02-14T00:00:00-05:00"
        },
        "performer": [
          {
            "reference": "Practitioner/Practitioner-2518",
            "display": "Jane Rosemary Saunders MD"
          }
        ],
        "valueQuantity": {
          "value": 134.21772010934725,
          "unit": "mg/dL"
        }
      },
      "request": {
        "method": "PUT",
        "url": "http://localhost:8080/cqf-ruler/baseDstu3/Observation/Observation-572802"
      }
    },
    {
      "fullUrl": "http://localhost:8080/cqf-ruler/baseDstu3/Observation/Observation-572803",
      "resource": {
        "resourceType": "Observation",
        "id": "Observation-572803",
        "status": "final",
        "code": {
          "coding": [
            {
              "system": "http://loinc.org",
              "code": "2571-8",
              "display": "Triglycerides"
            }
          ]
        },
        "subject": {
          "reference": "Patient/Patient-6521",
          "display": "Luis Norris Ayala"
        },
        "context": {
          "reference": "Encounter/Encounter-2400",
          "display": "Wellness Visit"
        },
        "effectivePeriod": {
          "start": "2014-02-14T00:00:00-05:00",
          "end": "2014-02-14T00:00:00-05:00"
        },
        "performer": [
          {
            "reference": "Practitioner/Practitioner-2518",
            "display": "Jane Rosemary Saunders MD"
          }
        ],
        "valueQuantity": {
          "value": 58.751571042008145,
          "unit": "mg/dL"
        }
      },
      "request": {
        "method": "PUT",
        "url": "http://localhost:8080/cqf-ruler/baseDstu3/Observation/Observation-572803"
      }
    },
    {
      "fullUrl": "http://localhost:8080/cqf-ruler/baseDstu3/Observation/Observation-572804",
      "resource": {
        "resourceType": "Observation",
        "id": "Observation-572804",
        "status": "final",
        "code": {
          "coding": [
            {
              "system": "http://loinc.org",
              "code": "18262-6",
              "display": "Low Density Lipoprotein Cholesterol"
            }
          ]
        },
        "subject": {
          "reference": "Patient/Patient-6521",
          "display": "Luis Norris Ayala"
        },
        "context": {
          "reference": "Encounter/Encounter-2400",
          "display": "Wellness Visit"
        },
        "effectivePeriod": {
          "start": "2014-02-14T00:00:00-05:00",
          "end": "2014-02-14T00:00:00-05:00"
        },
        "performer": [
          {
            "reference": "Practitioner/Practitioner-2518",
            "display": "Jane Rosemary Saunders MD"
          }
        ],
        "valueQuantity": {
          "value": 63.955718018239935,
          "unit": "mg/dL"
        }
      },
      "request": {
        "method": "PUT",
        "url": "http://localhost:8080/cqf-ruler/baseDstu3/Observation/Observation-572804"
      }
    },
    {
      "fullUrl": "http://localhost:8080/cqf-ruler/baseDstu3/Observation/Observation-572805",
      "resource": {
        "resourceType": "Observation",
        "id": "Observation-572805",
        "status": "final",
        "code": {
          "coding": [
            {
              "system": "http://loinc.org",
              "code": "2085-9",
              "display": "High Density Lipoprotein Cholesterol"
            }
          ]
        },
        "subject": {
          "reference": "Patient/Patient-6521",
          "display": "Luis Norris Ayala"
        },
        "context": {
          "reference": "Encounter/Encounter-2400",
          "display": "Wellness Visit"
        },
        "effectivePeriod": {
          "start": "2014-02-14T00:00:00-05:00",
          "end": "2014-02-14T00:00:00-05:00"
        },
        "performer": [
          {
            "reference": "Practitioner/Practitioner-2518",
            "display": "Jane Rosemary Saunders MD"
          }
        ],
        "valueQuantity": {
          "value": 58.51168788270571,
          "unit": "mg/dL"
        }
      },
      "request": {
        "method": "PUT",
        "url": "http://localhost:8080/cqf-ruler/baseDstu3/Observation/Observation-572805"
      }
    },
    {
      "fullUrl": "http://localhost:8080/cqf-ruler/baseDstu3/DiagnosticReport/DiagnosticReport-572806",
      "resource": {
        "resourceType": "DiagnosticReport",
        "id": "DiagnosticReport-572806",
        "status": "final",
        "code": {
          "coding": [
            {
              "system": "http://loinc.org",
              "code": "57698-3",
              "display": "Lipid Panel"
            }
          ]
        },
        "subject": {
          "reference": "Patient/Patient-6521",
          "display": "Luis Norris Ayala"
        },
        "context": {
          "reference": "Encounter/Encounter-2400",
          "display": "Wellness Visit"
        },
        "effectivePeriod": {
          "start": "2014-02-14T00:00:00-05:00",
          "end": "2014-02-14T00:00:00-05:00"
        },
        "issued": "2014-02-14T00:00:00.000-05:00",
        "result": [
          {
            "reference": "Observation/Observation-572802",
            "display": "Record_Cholesterol"
          },
          {
            "reference": "Observation/Observation-572803",
            "display": "Record_Triglycerides"
          },
          {
            "reference": "Observation/Observation-572804",
            "display": "Record_LDL"
          },
          {
            "reference": "Observation/Observation-572805",
            "display": "Record_HDL"
          }
        ]
      },
      "request": {
        "method": "PUT",
        "url": "http://localhost:8080/cqf-ruler/baseDstu3/DiagnosticReport/DiagnosticReport-572806"
      }
    },
    {
      "fullUrl": "http://localhost:8080/cqf-ruler/baseDstu3/Observation/Observation-572808",
      "resource": {
        "resourceType": "Observation",
        "id": "Observation-572808",
        "status": "final",
        "code": {
          "coding": [
            {
              "system": "http://loinc.org",
              "code": "8302-2",
              "display": "Height"
            }
          ]
        },
        "subject": {
          "reference": "Patient/Patient-6521",
          "display": "Luis Norris Ayala"
        },
        "context": {
          "reference": "Encounter/Encounter-2400",
          "display": "Wellness Visit"
        },
        "effectiveDateTime": "2014-02-14T00:00:00-05:00",
        "performer": [
          {
            "reference": "Practitioner/Practitioner-2518",
            "display": "Jane Rosemary Saunders MD"
          }
        ],
        "valueQuantity": {
          "value": 176.8,
          "unit": "cm"
        }
      },
      "request": {
        "method": "PUT",
        "url": "http://localhost:8080/cqf-ruler/baseDstu3/Observation/Observation-572808"
      }
    },
    {
      "fullUrl": "http://localhost:8080/cqf-ruler/baseDstu3/Observation/Observation-572809",
      "resource": {
        "resourceType": "Observation",
        "id": "Observation-572809",
        "status": "final",
        "code": {
          "coding": [
            {
              "system": "http://loinc.org",
              "code": "29463-7",
              "display": "Weight"
            }
          ]
        },
        "subject": {
          "reference": "Patient/Patient-6521",
          "display": "Luis Norris Ayala"
        },
        "context": {
          "reference": "Encounter/Encounter-2400",
          "display": "Wellness Visit"
        },
        "effectiveDateTime": "2014-02-14T00:00:00-05:00",
        "performer": [
          {
            "reference": "Practitioner/Practitioner-2518",
            "display": "Jane Rosemary Saunders MD"
          }
        ],
        "valueQuantity": {
          "value": 118.80399398385038,
          "unit": "kg"
        }
      },
      "request": {
        "method": "PUT",
        "url": "http://localhost:8080/cqf-ruler/baseDstu3/Observation/Observation-572809"
      }
    },
    {
      "fullUrl": "http://localhost:8080/cqf-ruler/baseDstu3/Observation/Observation-572810",
      "resource": {
        "resourceType": "Observation",
        "id": "Observation-572810",
        "status": "final",
        "code": {
          "coding": [
            {
              "system": "http://loinc.org",
              "code": "39156-5",
              "display": "BMI"
            }
          ]
        },
        "subject": {
          "reference": "Patient/Patient-6521",
          "display": "Luis Norris Ayala"
        },
        "context": {
          "reference": "Encounter/Encounter-2400",
          "display": "Wellness Visit"
        },
        "effectiveDateTime": "2014-02-14T00:00:00-05:00",
        "performer": [
          {
            "reference": "Practitioner/Practitioner-2518",
            "display": "Jane Rosemary Saunders MD"
          }
        ],
        "valueQuantity": {
          "value": 38.00725632148527,
          "unit": "kg/m2"
        }
      },
      "request": {
        "method": "PUT",
        "url": "http://localhost:8080/cqf-ruler/baseDstu3/Observation/Observation-572810"
      }
    },
    {
      "fullUrl": "http://localhost:8080/cqf-ruler/baseDstu3/Observation/Observation-572811",
      "resource": {
        "resourceType": "Observation",
        "id": "Observation-572811",
        "status": "final",
        "code": {
          "coding": [
            {
              "system": "http://loinc.org",
              "code": "8310-5",
              "display": "Temperature"
            }
          ]
        },
        "subject": {
          "reference": "Patient/Patient-6521",
          "display": "Luis Norris Ayala"
        },
        "context": {
          "reference": "Encounter/Encounter-2400",
          "display": "Wellness Visit"
        },
        "effectiveDateTime": "2014-02-14T00:00:00-05:00",
        "performer": [
          {
            "reference": "Practitioner/Practitioner-2518",
            "display": "Jane Rosemary Saunders MD"
          }
        ],
        "valueQuantity": {
          "value": 37.0,
          "unit": "C"
        }
      },
      "request": {
        "method": "PUT",
        "url": "http://localhost:8080/cqf-ruler/baseDstu3/Observation/Observation-572811"
      }
    },
    {
      "fullUrl": "http://localhost:8080/cqf-ruler/baseDstu3/Observation/Observation-572812",
      "resource": {
        "resourceType": "Observation",
        "id": "Observation-572812",
        "status": "final",
        "code": {
          "coding": [
            {
              "system": "http://loinc.org",
              "code": "8459-0",
              "display": "Systolic Blood Pressure"
            }
          ]
        },
        "subject": {
          "reference": "Patient/Patient-6521",
          "display": "Luis Norris Ayala"
        },
        "context": {
          "reference": "Encounter/Encounter-2400",
          "display": "Wellness Visit"
        },
        "effectiveDateTime": "2014-02-14T00:00:00-05:00",
        "performer": [
          {
            "reference": "Practitioner/Practitioner-2518",
            "display": "Jane Rosemary Saunders MD"
          }
        ],
        "valueQuantity": {
          "value": 136.62532273127476,
          "unit": "mmHg"
        }
      },
      "request": {
        "method": "PUT",
        "url": "http://localhost:8080/cqf-ruler/baseDstu3/Observation/Observation-572812"
      }
    },
    {
      "fullUrl": "http://localhost:8080/cqf-ruler/baseDstu3/Observation/Observation-572813",
      "resource": {
        "resourceType": "Observation",
        "id": "Observation-572813",
        "status": "final",
        "code": {
          "coding": [
            {
              "system": "http://loinc.org",
              "code": "8453-3",
              "display": "Diastolic Blood Pressure"
            }
          ]
        },
        "subject": {
          "reference": "Patient/Patient-6521",
          "display": "Luis Norris Ayala"
        },
        "context": {
          "reference": "Encounter/Encounter-2400",
          "display": "Wellness Visit"
        },
        "effectiveDateTime": "2014-02-14T00:00:00-05:00",
        "performer": [
          {
            "reference": "Practitioner/Practitioner-2518",
            "display": "Jane Rosemary Saunders MD"
          }
        ],
        "valueQuantity": {
          "value": 68.17438938780202,
          "unit": "mmHg"
        }
      },
      "request": {
        "method": "PUT",
        "url": "http://localhost:8080/cqf-ruler/baseDstu3/Observation/Observation-572813"
      }
    },
    {
      "fullUrl": "http://localhost:8080/cqf-ruler/baseDstu3/DiagnosticReport/DiagnosticReport-572807",
      "resource": {
        "resourceType": "DiagnosticReport",
        "id": "DiagnosticReport-572807",
        "status": "final",
        "code": {
          "coding": [
            {
              "system": "http://loinc.org",
              "code": "8716-3",
              "display": "Vital Signs Panel"
            }
          ]
        },
        "subject": {
          "reference": "Patient/Patient-6521",
          "display": "Luis Norris Ayala"
        },
        "context": {
          "reference": "Encounter/Encounter-2400",
          "display": "Wellness Visit"
        },
        "effectivePeriod": {
          "start": "2014-02-14T00:00:00-05:00",
          "end": "2014-02-14T00:00:00-05:00"
        },
        "issued": "2014-02-14T00:00:00.000-05:00",
        "result": [
          {
            "reference": "Observation/Observation-572808",
            "display": "Height"
          },
          {
            "reference": "Observation/Observation-572809",
            "display": "Weight"
          },
          {
            "reference": "Observation/Observation-572810",
            "display": "BMI"
          },
          {
            "reference": "Observation/Observation-572811",
            "display": "Temperature"
          },
          {
            "reference": "Observation/Observation-572812",
            "display": "Systolic Blood Pressure"
          },
          {
            "reference": "Observation/Observation-572813",
            "display": "Diastolic Blood Pressure"
          }
        ]
      },
      "request": {
        "method": "PUT",
        "url": "http://localhost:8080/cqf-ruler/baseDstu3/DiagnosticReport/DiagnosticReport-572807"
      }
    }
  ]
}