{
  "resourceType": "Bundle",
  "id": "Alfredo-Curtis-Cooley-III-6481-Encounter-298",
  "type": "transaction",
  "entry": [
    {
      "fullUrl": "http://localhost:8080/cqf-ruler/baseDstu3/Encounter/Encounter-298",
      "resource": {
        "resourceType": "Encounter",
        "id": "Encounter-298",
        "status": "finished",
        "class": {
          "system": "http://hl7.org/fhir/encounter-class",
          "code": "outpatient",
          "display": "Inpatient"
        },
        "subject": {
          "reference": "Patient/Patient-6481",
          "display": "Alfredo Curtis Cooley III"
        },
        "participant": [
          {
            "period": {
              "start": "1989-11-10T00:00:00-05:00",
              "end": "1989-11-10T00:00:00-05:00"
            },
            "individual": {
              "reference": "Practitioner/Practitioner-2518",
              "display": "Jane Rosemary Saunders MD"
            }
          }
        ],
        "period": {
          "start": "1989-11-10T00:00:00-05:00",
          "end": "1989-11-10T00:00:00-05:00"
        },
        "location": [
          {
            "location": {
              "reference": "Location/Location-1103",
              "display": "Acme Medical Center"
            }
          }
        ],
        "serviceProvider": {
          "reference": "Organization/Organization-1103",
          "display": "Acme Medical Center"
        }
      },
      "request": {
        "method": "PUT",
        "url": "http://localhost:8080/cqf-ruler/baseDstu3/Encounter/Encounter-298"
      }
    },
    {
      "fullUrl": "http://localhost:8080/cqf-ruler/baseDstu3/Immunization/Immunization-15300",
      "resource": {
        "resourceType": "Immunization",
        "id": "Immunization-15300",
        "status": "completed",
        "notGiven": false,
        "vaccineCode": {
          "coding": [
            {
              "system": "http://hl7.org/fhir/sid/cvx",
              "code": "140",
              "display": "Influenza, seasonal, injectable, preservative free"
            }
          ]
        },
        "patient": {
          "reference": "Patient/Patient-6481",
          "display": "Alfredo Curtis Cooley III"
        },
        "date": "1989-11-10T00:00:00-05:00",
        "primarySource": true,
        "location": {
          "reference": "Location/Location-1103",
          "display": "Acme Medical Center"
        },
        "practitioner": [
          {
            "actor": {
              "reference": "Practitioner/Practitioner-2518",
              "display": "Jane Rosemary Saunders MD"
            }
          }
        ]
      },
      "request": {
        "method": "PUT",
        "url": "http://localhost:8080/cqf-ruler/baseDstu3/Immunization/Immunization-15300"
      }
    },
    {
      "fullUrl": "http://localhost:8080/cqf-ruler/baseDstu3/Observation/Observation-33490",
      "resource": {
        "resourceType": "Observation",
        "id": "Observation-33490",
        "status": "final",
        "code": {
          "coding": [
            {
              "system": "http://loinc.org",
              "code": "8480-6",
              "display": "Systolic blood pressure"
            }
          ]
        },
        "subject": {
          "reference": "Patient/Patient-6481",
          "display": "Alfredo Curtis Cooley III"
        },
        "context": {
          "reference": "Encounter/Encounter-298",
          "display": "Wellness Visit"
        },
        "effectivePeriod": {
          "start": "1989-11-10T00:00:00-05:00",
          "end": "1989-11-10T00:00:00-05:00"
        },
        "performer": [
          {
            "reference": "Practitioner/Practitioner-2518",
            "display": "Jane Rosemary Saunders MD"
          }
        ],
        "valueQuantity": {
          "value": 122.219710211167,
          "unit": "mmHg"
        }
      },
      "request": {
        "method": "PUT",
        "url": "http://localhost:8080/cqf-ruler/baseDstu3/Observation/Observation-33490"
      }
    },
    {
      "fullUrl": "http://localhost:8080/cqf-ruler/baseDstu3/Observation/Observation-33491",
      "resource": {
        "resourceType": "Observation",
        "id": "Observation-33491",
        "status": "final",
        "code": {
          "coding": [
            {
              "system": "http://loinc.org",
              "code": "8462-4",
              "display": "Diastolic blood pressure"
            }
          ]
        },
        "subject": {
          "reference": "Patient/Patient-6481",
          "display": "Alfredo Curtis Cooley III"
        },
        "context": {
          "reference": "Encounter/Encounter-298",
          "display": "Wellness Visit"
        },
        "effectivePeriod": {
          "start": "1989-11-10T00:00:00-05:00",
          "end": "1989-11-10T00:00:00-05:00"
        },
        "performer": [
          {
            "reference": "Practitioner/Practitioner-2518",
            "display": "Jane Rosemary Saunders MD"
          }
        ],
        "valueQuantity": {
          "value": 65.22489215053803,
          "unit": "mmHg"
        }
      },
      "request": {
        "method": "PUT",
        "url": "http://localhost:8080/cqf-ruler/baseDstu3/Observation/Observation-33491"
      }
    },
    {
      "fullUrl": "http://localhost:8080/cqf-ruler/baseDstu3/Observation/Observation-33492",
      "resource": {
        "resourceType": "Observation",
        "id": "Observation-33492",
        "status": "final",
        "code": {
          "coding": [
            {
              "system": "http://loinc.org",
              "code": "8302-2",
              "display": "Body Height"
            }
          ]
        },
        "subject": {
          "reference": "Patient/Patient-6481",
          "display": "Alfredo Curtis Cooley III"
        },
        "context": {
          "reference": "Encounter/Encounter-298",
          "display": "Wellness Visit"
        },
        "effectivePeriod": {
          "start": "1989-11-10T00:00:00-05:00",
          "end": "1989-11-10T00:00:00-05:00"
        },
        "performer": [
          {
            "reference": "Practitioner/Practitioner-2518",
            "display": "Jane Rosemary Saunders MD"
          }
        ],
        "valueQuantity": {
          "value": 116.1,
          "unit": "cm"
        }
      },
      "request": {
        "method": "PUT",
        "url": "http://localhost:8080/cqf-ruler/baseDstu3/Observation/Observation-33492"
      }
    },
    {
      "fullUrl": "http://localhost:8080/cqf-ruler/baseDstu3/Observation/Observation-33493",
      "resource": {
        "resourceType": "Observation",
        "id": "Observation-33493",
        "status": "final",
        "code": {
          "coding": [
            {
              "system": "http://loinc.org",
              "code": "29463-7",
              "display": "Body Weight"
            }
          ]
        },
        "subject": {
          "reference": "Patient/Patient-6481",
          "display": "Alfredo Curtis Cooley III"
        },
        "context": {
          "reference": "Encounter/Encounter-298",
          "display": "Wellness Visit"
        },
        "effectivePeriod": {
          "start": "1989-11-10T00:00:00-05:00",
          "end": "1989-11-10T00:00:00-05:00"
        },
        "performer": [
          {
            "reference": "Practitioner/Practitioner-2518",
            "display": "Jane Rosemary Saunders MD"
          }
        ],
        "valueQuantity": {
          "value": 21.5,
          "unit": "kg"
        }
      },
      "request": {
        "method": "PUT",
        "url": "http://localhost:8080/cqf-ruler/baseDstu3/Observation/Observation-33493"
      }
    },
    {
      "fullUrl": "http://localhost:8080/cqf-ruler/baseDstu3/Observation/Observation-33494",
      "resource": {
        "resourceType": "Observation",
        "id": "Observation-33494",
        "status": "final",
        "code": {
          "coding": [
            {
              "system": "http://loinc.org",
              "code": "39156-5",
              "display": "Body Mass Index"
            }
          ]
        },
        "subject": {
          "reference": "Patient/Patient-6481",
          "display": "Alfredo Curtis Cooley III"
        },
        "context": {
          "reference": "Encounter/Encounter-298",
          "display": "Wellness Visit"
        },
        "effectivePeriod": {
          "start": "1989-11-10T00:00:00-05:00",
          "end": "1989-11-10T00:00:00-05:00"
        },
        "performer": [
          {
            "reference": "Practitioner/Practitioner-2518",
            "display": "Jane Rosemary Saunders MD"
          }
        ],
        "valueQuantity": {
          "value": 15.950489680033176,
          "unit": "kg/m2"
        }
      },
      "request": {
        "method": "PUT",
        "url": "http://localhost:8080/cqf-ruler/baseDstu3/Observation/Observation-33494"
      }
    },
    {
      "fullUrl": "http://localhost:8080/cqf-ruler/baseDstu3/Observation/Observation-33497",
      "resource": {
        "resourceType": "Observation",
        "id": "Observation-33497",
        "status": "final",
        "category": [
          {
            "coding": [
              {
                "system": "http://hl7.org/fhir/observation-category",
                "code": "vital-signs",
                "display": "vital-signs"
              }
            ]
          }
        ],
        "code": {
          "coding": [
            {
              "system": "http://loinc.org",
              "code": "55284-4",
              "display": "Blood Pressure"
            }
          ]
        },
        "subject": {
          "reference": "Patient/Patient-6481",
          "display": "Alfredo Curtis Cooley III"
        },
        "context": {
          "reference": "Encounter/Encounter-298",
          "display": "Wellness Visit"
        },
        "effectivePeriod": {
          "start": "1989-11-10T00:00:00-05:00",
          "end": "1989-11-10T00:00:00-05:00"
        },
        "valueQuantity": {
          "value": 65.22489215053803,
          "unit": "mmHg"
        },
        "component": [
          {
            "code": {
              "coding": [
                {
                  "system": "http://loinc.org",
                  "code": "8480-6",
                  "display": "Systolic Blood Pressure"
                }
              ]
            }
          },
          {
            "code": {
              "coding": [
                {
                  "system": "http://loinc.org",
                  "code": "8462-4",
                  "display": "Diastolic Blood Pressure"
                }
              ]
            }
          }
        ]
      },
      "request": {
        "method": "PUT",
        "url": "http://localhost:8080/cqf-ruler/baseDstu3/Observation/Observation-33497"
      }
    },
    {
      "fullUrl": "http://localhost:8080/cqf-ruler/baseDstu3/Observation/Observation-33499",
      "resource": {
        "resourceType": "Observation",
        "id": "Observation-33499",
        "status": "final",
        "code": {
          "coding": [
            {
              "system": "http://loinc.org",
              "code": "8302-2",
              "display": "Height"
            }
          ]
        },
        "subject": {
          "reference": "Patient/Patient-6481",
          "display": "Alfredo Curtis Cooley III"
        },
        "context": {
          "reference": "Encounter/Encounter-298",
          "display": "Wellness Visit"
        },
        "effectiveDateTime": "1989-11-10T00:00:00-05:00",
        "performer": [
          {
            "reference": "Practitioner/Practitioner-2518",
            "display": "Jane Rosemary Saunders MD"
          }
        ],
        "valueQuantity": {
          "value": 116.1,
          "unit": "cm"
        }
      },
      "request": {
        "method": "PUT",
        "url": "http://localhost:8080/cqf-ruler/baseDstu3/Observation/Observation-33499"
      }
    },
    {
      "fullUrl": "http://localhost:8080/cqf-ruler/baseDstu3/Observation/Observation-33500",
      "resource": {
        "resourceType": "Observation",
        "id": "Observation-33500",
        "status": "final",
        "code": {
          "coding": [
            {
              "system": "http://loinc.org",
              "code": "29463-7",
              "display": "Weight"
            }
          ]
        },
        "subject": {
          "reference": "Patient/Patient-6481",
          "display": "Alfredo Curtis Cooley III"
        },
        "context": {
          "reference": "Encounter/Encounter-298",
          "display": "Wellness Visit"
        },
        "effectiveDateTime": "1989-11-10T00:00:00-05:00",
        "performer": [
          {
            "reference": "Practitioner/Practitioner-2518",
            "display": "Jane Rosemary Saunders MD"
          }
        ],
        "valueQuantity": {
          "value": 21.5,
          "unit": "kg"
        }
      },
      "request": {
        "method": "PUT",
        "url": "http://localhost:8080/cqf-ruler/baseDstu3/Observation/Observation-33500"
      }
    },
    {
      "fullUrl": "http://localhost:8080/cqf-ruler/baseDstu3/Observation/Observation-33501",
      "resource": {
        "resourceType": "Observation",
        "id": "Observation-33501",
        "status": "final",
        "code": {
          "coding": [
            {
              "system": "http://loinc.org",
              "code": "39156-5",
              "display": "BMI"
            }
          ]
        },
        "subject": {
          "reference": "Patient/Patient-6481",
          "display": "Alfredo Curtis Cooley III"
        },
        "context": {
          "reference": "Encounter/Encounter-298",
          "display": "Wellness Visit"
        },
        "effectiveDateTime": "1989-11-10T00:00:00-05:00",
        "performer": [
          {
            "reference": "Practitioner/Practitioner-2518",
            "display": "Jane Rosemary Saunders MD"
          }
        ],
        "valueQuantity": {
          "value": 15.950489680033176,
          "unit": "kg/m2"
        }
      },
      "request": {
        "method": "PUT",
        "url": "http://localhost:8080/cqf-ruler/baseDstu3/Observation/Observation-33501"
      }
    },
    {
      "fullUrl": "http://localhost:8080/cqf-ruler/baseDstu3/Observation/Observation-33502",
      "resource": {
        "resourceType": "Observation",
        "id": "Observation-33502",
        "status": "final",
        "code": {
          "coding": [
            {
              "system": "http://loinc.org",
              "code": "8310-5",
              "display": "Temperature"
            }
          ]
        },
        "subject": {
          "reference": "Patient/Patient-6481",
          "display": "Alfredo Curtis Cooley III"
        },
        "context": {
          "reference": "Encounter/Encounter-298",
          "display": "Wellness Visit"
        },
        "effectiveDateTime": "1989-11-10T00:00:00-05:00",
        "performer": [
          {
            "reference": "Practitioner/Practitioner-2518",
            "display": "Jane Rosemary Saunders MD"
          }
        ],
        "valueQuantity": {
          "value": 37.0,
          "unit": "C"
        }
      },
      "request": {
        "method": "PUT",
        "url": "http://localhost:8080/cqf-ruler/baseDstu3/Observation/Observation-33502"
      }
    },
    {
      "fullUrl": "http://localhost:8080/cqf-ruler/baseDstu3/Observation/Observation-33503",
      "resource": {
        "resourceType": "Observation",
        "id": "Observation-33503",
        "status": "final",
        "code": {
          "coding": [
            {
              "system": "http://loinc.org",
              "code": "8459-0",
              "display": "Systolic Blood Pressure"
            }
          ]
        },
        "subject": {
          "reference": "Patient/Patient-6481",
          "display": "Alfredo Curtis Cooley III"
        },
        "context": {
          "reference": "Encounter/Encounter-298",
          "display": "Wellness Visit"
        },
        "effectiveDateTime": "1989-11-10T00:00:00-05:00",
        "performer": [
          {
            "reference": "Practitioner/Practitioner-2518",
            "display": "Jane Rosemary Saunders MD"
          }
        ],
        "valueQuantity": {
          "value": 122.219710211167,
          "unit": "mmHg"
        }
      },
      "request": {
        "method": "PUT",
        "url": "http://localhost:8080/cqf-ruler/baseDstu3/Observation/Observation-33503"
      }
    },
    {
      "fullUrl": "http://localhost:8080/cqf-ruler/baseDstu3/Observation/Observation-33504",
      "resource": {
        "resourceType": "Observation",
        "id": "Observation-33504",
        "status": "final",
        "code": {
          "coding": [
            {
              "system": "http://loinc.org",
              "code": "8453-3",
              "display": "Diastolic Blood Pressure"
            }
          ]
        },
        "subject": {
          "reference": "Patient/Patient-6481",
          "display": "Alfredo Curtis Cooley III"
        },
        "context": {
          "reference": "Encounter/Encounter-298",
          "display": "Wellness Visit"
        },
        "effectiveDateTime": "1989-11-10T00:00:00-05:00",
        "performer": [
          {
            "reference": "Practitioner/Practitioner-2518",
            "display": "Jane Rosemary Saunders MD"
          }
        ],
        "valueQuantity": {
          "value": 65.22489215053803,
          "unit": "mmHg"
        }
      },
      "request": {
        "method": "PUT",
        "url": "http://localhost:8080/cqf-ruler/baseDstu3/Observation/Observation-33504"
      }
    },
    {
      "fullUrl": "http://localhost:8080/cqf-ruler/baseDstu3/DiagnosticReport/DiagnosticReport-33498",
      "resource": {
        "resourceType": "DiagnosticReport",
        "id": "DiagnosticReport-33498",
        "status": "final",
        "code": {
          "coding": [
            {
              "system": "http://loinc.org",
              "code": "8716-3",
              "display": "Vital Signs Panel"
            }
          ]
        },
        "subject": {
          "reference": "Patient/Patient-6481",
          "display": "Alfredo Curtis Cooley III"
        },
        "context": {
          "reference": "Encounter/Encounter-298",
          "display": "Wellness Visit"
        },
        "effectivePeriod": {
          "start": "1989-11-10T00:00:00-05:00",
          "end": "1989-11-10T00:00:00-05:00"
        },
        "issued": "1989-11-10T00:00:00.000-05:00",
        "result": [
          {
            "reference": "Observation/Observation-33499",
            "display": "Height"
          },
          {
            "reference": "Observation/Observation-33500",
            "display": "Weight"
          },
          {
            "reference": "Observation/Observation-33501",
            "display": "BMI"
          },
          {
            "reference": "Observation/Observation-33502",
            "display": "Temperature"
          },
          {
            "reference": "Observation/Observation-33503",
            "display": "Systolic Blood Pressure"
          },
          {
            "reference": "Observation/Observation-33504",
            "display": "Diastolic Blood Pressure"
          }
        ]
      },
      "request": {
        "method": "PUT",
        "url": "http://localhost:8080/cqf-ruler/baseDstu3/DiagnosticReport/DiagnosticReport-33498"
      }
    }
  ]
}