{
  "resourceType": "Bundle",
  "id": "Alfredo-Curtis-Cooley-III-6481-Encounter-3332",
  "type": "transaction",
  "entry": [
    {
      "fullUrl": "http://localhost:8080/cqf-ruler/baseDstu3/Encounter/Encounter-3332",
      "resource": {
        "resourceType": "Encounter",
        "id": "Encounter-3332",
        "meta": {
          "profile": [
            "http://hl7.org/fhir/us/hedis/StructureDefinition/hedis-encounter"
          ]
        },
        "status": "finished",
        "class": {
          "system": "http://hl7.org/fhir/encounter-class",
          "code": "outpatient",
          "display": "Outpatient"
        },
        "type": [
          {
            "coding": [
              {
                "system": "http://snomed.info/sct",
                "code": "185345009",
                "display": "Encounter for symptom"
              }
            ]
          }
        ],
        "subject": {
          "reference": "Patient/Patient-6481",
          "display": "Alfredo Curtis Cooley III"
        },
        "participant": [
          {
            "period": {
              "start": "2017-02-03T00:00:00-05:00",
              "end": "2017-02-03T00:00:00-05:00"
            },
            "individual": {
              "reference": "Practitioner/Practitioner-2518",
              "display": "Jane Rosemary Saunders MD"
            }
          }
        ],
        "period": {
          "start": "2017-02-03T00:00:00-05:00",
          "end": "2017-02-03T00:00:00-05:00"
        },
        "location": [
          {
            "location": {
              "reference": "Location/Location-1103",
              "display": "Acme Medical Center"
            }
          }
        ],
        "serviceProvider": {
          "reference": "Organization/Organization-1103",
          "display": "Acme Medical Center"
        }
      },
      "request": {
        "method": "PUT",
        "url": "http://localhost:8080/cqf-ruler/baseDstu3/Encounter/Encounter-3332"
      }
    },
    {
      "fullUrl": "http://localhost:8080/cqf-ruler/baseDstu3/Observation/Observation-658067",
      "resource": {
        "resourceType": "Observation",
        "id": "Observation-658067",
        "meta": {
          "profile": [
            "http://hl7.org/fhir/us/hedis/StructureDefinition/hedis-observation"
          ]
        },
        "status": "final",
        "code": {
          "coding": [
            {
              "system": "https://www.cms.gov/Medicare/Coding/MedHCPCSGenInfo",
              "code": "G8431",
              "display": "Screening for depression is documented as being positive and a follow-up plan is documented (G8431)"
            }
          ]
        },
        "subject": {
          "reference": "Patient/Patient-6481",
          "display": "Alfredo Curtis Cooley III"
        },
        "context": {
          "reference": "Encounter/Encounter-3332",
          "display": "Wellness_Encounter"
        },
        "effectiveDateTime": "2017-02-03T00:00:00-05:00",
        "performer": [
          {
            "reference": "Practitioner/Practitioner-2518",
            "display": "Jane Rosemary Saunders MD"
          }
        ],
        "valueString": "POSITIVE"
      },
      "request": {
        "method": "PUT",
        "url": "http://localhost:8080/cqf-ruler/baseDstu3/Observation/Observation-658067"
      }
    },
    {
      "fullUrl": "http://localhost:8080/cqf-ruler/baseDstu3/Condition/Condition-658068",
      "resource": {
        "resourceType": "Condition",
        "id": "Condition-658068",
        "meta": {
          "profile": [
            "http://hl7.org/fhir/us/hedis/StructureDefinition/hedis-condition"
          ]
        },
        "clinicalStatus": "active",
        "verificationStatus": "confirmed",
        "code": {
          "coding": [
            {
              "system": "http://snomed.info/sct",
              "code": "310495003",
              "display": "Mild depression (disorder)"
            }
          ]
        },
        "subject": {
          "reference": "Patient/Patient-6481",
          "display": "Alfredo Curtis Cooley III"
        },
        "context": {
          "reference": "Encounter/Encounter-3332",
          "display": "Wellness_Encounter"
        },
        "onsetDateTime": "2017-02-03T00:00:00-05:00",
        "assertedDate": "2017-02-03T00:00:00-05:00",
        "asserter": {
          "reference": "Practitioner/Practitioner-2518",
          "display": "Jane Rosemary Saunders MD"
        }
      },
      "request": {
        "method": "PUT",
        "url": "http://localhost:8080/cqf-ruler/baseDstu3/Condition/Condition-658068"
      }
    },
    {
      "fullUrl": "http://localhost:8080/cqf-ruler/baseDstu3/DiagnosticReport/DiagnosticReport-658069",
      "resource": {
        "resourceType": "DiagnosticReport",
        "id": "DiagnosticReport-658069",
        "meta": {
          "profile": [
            "http://hl7.org/fhir/us/hedis/StructureDefinition/hedis-diagnosticreport"
          ]
        },
        "status": "final",
        "category": {
          "coding": [
            {
              "system": "http://hl7.org/fhir/ValueSet/diagnostic-service-sections",
              "code": "OTH",
              "display": "Other"
            }
          ]
        },
        "code": {
          "coding": [
            {
              "system": "http://snomed.info/sct",
              "code": "310496002",
              "display": "Moderate depression (disorder)"
            }
          ]
        },
        "subject": {
          "reference": "Patient/Patient-6481",
          "display": "Alfredo Curtis Cooley III"
        },
        "context": {
          "reference": "Encounter/Encounter-3332",
          "display": "Wellness_Encounter"
        },
        "effectivePeriod": {
          "start": "2017-02-03T00:00:00-05:00",
          "end": "2017-02-03T00:00:00-05:00"
        },
        "issued": "2017-02-03T00:00:00.000-05:00"
      },
      "request": {
        "method": "PUT",
        "url": "http://localhost:8080/cqf-ruler/baseDstu3/DiagnosticReport/DiagnosticReport-658069"
      }
    },
    {
      "fullUrl": "http://localhost:8080/cqf-ruler/baseDstu3/Observation/Observation-658072",
      "resource": {
        "resourceType": "Observation",
        "id": "Observation-658072",
        "status": "final",
        "code": {
          "coding": [
            {
              "system": "http://loinc.org",
              "code": "8302-2",
              "display": "Height"
            }
          ]
        },
        "subject": {
          "reference": "Patient/Patient-6481",
          "display": "Alfredo Curtis Cooley III"
        },
        "context": {
          "reference": "Encounter/Encounter-3332",
          "display": "Wellness_Encounter"
        },
        "effectiveDateTime": "2017-02-03T00:00:00-05:00",
        "performer": [
          {
            "reference": "Practitioner/Practitioner-2518",
            "display": "Jane Rosemary Saunders MD"
          }
        ],
        "valueQuantity": {
          "value": 167.7,
          "unit": "cm"
        }
      },
      "request": {
        "method": "PUT",
        "url": "http://localhost:8080/cqf-ruler/baseDstu3/Observation/Observation-658072"
      }
    },
    {
      "fullUrl": "http://localhost:8080/cqf-ruler/baseDstu3/Observation/Observation-658073",
      "resource": {
        "resourceType": "Observation",
        "id": "Observation-658073",
        "status": "final",
        "code": {
          "coding": [
            {
              "system": "http://loinc.org",
              "code": "29463-7",
              "display": "Weight"
            }
          ]
        },
        "subject": {
          "reference": "Patient/Patient-6481",
          "display": "Alfredo Curtis Cooley III"
        },
        "context": {
          "reference": "Encounter/Encounter-3332",
          "display": "Wellness_Encounter"
        },
        "effectiveDateTime": "2017-02-03T00:00:00-05:00",
        "performer": [
          {
            "reference": "Practitioner/Practitioner-2518",
            "display": "Jane Rosemary Saunders MD"
          }
        ],
        "valueQuantity": {
          "value": 61.08939967740207,
          "unit": "kg"
        }
      },
      "request": {
        "method": "PUT",
        "url": "http://localhost:8080/cqf-ruler/baseDstu3/Observation/Observation-658073"
      }
    },
    {
      "fullUrl": "http://localhost:8080/cqf-ruler/baseDstu3/Observation/Observation-658074",
      "resource": {
        "resourceType": "Observation",
        "id": "Observation-658074",
        "status": "final",
        "code": {
          "coding": [
            {
              "system": "http://loinc.org",
              "code": "39156-5",
              "display": "BMI"
            }
          ]
        },
        "subject": {
          "reference": "Patient/Patient-6481",
          "display": "Alfredo Curtis Cooley III"
        },
        "context": {
          "reference": "Encounter/Encounter-3332",
          "display": "Wellness_Encounter"
        },
        "effectiveDateTime": "2017-02-03T00:00:00-05:00",
        "performer": [
          {
            "reference": "Practitioner/Practitioner-2518",
            "display": "Jane Rosemary Saunders MD"
          }
        ],
        "valueQuantity": {
          "value": 21.72199613821928,
          "unit": "kg/m2"
        }
      },
      "request": {
        "method": "PUT",
        "url": "http://localhost:8080/cqf-ruler/baseDstu3/Observation/Observation-658074"
      }
    },
    {
      "fullUrl": "http://localhost:8080/cqf-ruler/baseDstu3/Observation/Observation-658075",
      "resource": {
        "resourceType": "Observation",
        "id": "Observation-658075",
        "status": "final",
        "code": {
          "coding": [
            {
              "system": "http://loinc.org",
              "code": "8310-5",
              "display": "Temperature"
            }
          ]
        },
        "subject": {
          "reference": "Patient/Patient-6481",
          "display": "Alfredo Curtis Cooley III"
        },
        "context": {
          "reference": "Encounter/Encounter-3332",
          "display": "Wellness_Encounter"
        },
        "effectiveDateTime": "2017-02-03T00:00:00-05:00",
        "performer": [
          {
            "reference": "Practitioner/Practitioner-2518",
            "display": "Jane Rosemary Saunders MD"
          }
        ],
        "valueQuantity": {
          "value": 37.0,
          "unit": "C"
        }
      },
      "request": {
        "method": "PUT",
        "url": "http://localhost:8080/cqf-ruler/baseDstu3/Observation/Observation-658075"
      }
    },
    {
      "fullUrl": "http://localhost:8080/cqf-ruler/baseDstu3/Observation/Observation-658076",
      "resource": {
        "resourceType": "Observation",
        "id": "Observation-658076",
        "status": "final",
        "code": {
          "coding": [
            {
              "system": "http://loinc.org",
              "code": "8459-0",
              "display": "Systolic Blood Pressure"
            }
          ]
        },
        "subject": {
          "reference": "Patient/Patient-6481",
          "display": "Alfredo Curtis Cooley III"
        },
        "context": {
          "reference": "Encounter/Encounter-3332",
          "display": "Wellness_Encounter"
        },
        "effectiveDateTime": "2017-02-03T00:00:00-05:00",
        "performer": [
          {
            "reference": "Practitioner/Practitioner-2518",
            "display": "Jane Rosemary Saunders MD"
          }
        ],
        "valueQuantity": {
          "value": 100.14430810023171,
          "unit": "mmHg"
        }
      },
      "request": {
        "method": "PUT",
        "url": "http://localhost:8080/cqf-ruler/baseDstu3/Observation/Observation-658076"
      }
    },
    {
      "fullUrl": "http://localhost:8080/cqf-ruler/baseDstu3/Observation/Observation-658077",
      "resource": {
        "resourceType": "Observation",
        "id": "Observation-658077",
        "status": "final",
        "code": {
          "coding": [
            {
              "system": "http://loinc.org",
              "code": "8453-3",
              "display": "Diastolic Blood Pressure"
            }
          ]
        },
        "subject": {
          "reference": "Patient/Patient-6481",
          "display": "Alfredo Curtis Cooley III"
        },
        "context": {
          "reference": "Encounter/Encounter-3332",
          "display": "Wellness_Encounter"
        },
        "effectiveDateTime": "2017-02-03T00:00:00-05:00",
        "performer": [
          {
            "reference": "Practitioner/Practitioner-2518",
            "display": "Jane Rosemary Saunders MD"
          }
        ],
        "valueQuantity": {
          "value": 104.2122481418988,
          "unit": "mmHg"
        }
      },
      "request": {
        "method": "PUT",
        "url": "http://localhost:8080/cqf-ruler/baseDstu3/Observation/Observation-658077"
      }
    },
    {
      "fullUrl": "http://localhost:8080/cqf-ruler/baseDstu3/DiagnosticReport/DiagnosticReport-658071",
      "resource": {
        "resourceType": "DiagnosticReport",
        "id": "DiagnosticReport-658071",
        "meta": {
          "profile": [
            "http://hl7.org/fhir/us/hedis/StructureDefinition/hedis-diagnosticreport"
          ]
        },
        "status": "final",
        "category": {
          "coding": [
            {
              "system": "http://hl7.org/fhir/ValueSet/diagnostic-service-sections",
              "code": "LAB",
              "display": "Laboratory"
            }
          ]
        },
        "code": {
          "coding": [
            {
              "system": "http://loinc.org",
              "code": "8716-3",
              "display": "Vital Signs Panel"
            }
          ]
        },
        "subject": {
          "reference": "Patient/Patient-6481",
          "display": "Alfredo Curtis Cooley III"
        },
        "context": {
          "reference": "Encounter/Encounter-3332",
          "display": "Wellness_Encounter"
        },
        "effectivePeriod": {
          "start": "2017-02-03T00:00:00-05:00",
          "end": "2017-02-03T00:00:00-05:00"
        },
        "issued": "2017-02-03T00:00:00.000-05:00",
        "result": [
          {
            "reference": "Observation/Observation-658072",
            "display": "Height"
          },
          {
            "reference": "Observation/Observation-658073",
            "display": "Weight"
          },
          {
            "reference": "Observation/Observation-658074",
            "display": "BMI"
          },
          {
            "reference": "Observation/Observation-658075",
            "display": "Temperature"
          },
          {
            "reference": "Observation/Observation-658076",
            "display": "Systolic Blood Pressure"
          },
          {
            "reference": "Observation/Observation-658077",
            "display": "Diastolic Blood Pressure"
          }
        ]
      },
      "request": {
        "method": "PUT",
        "url": "http://localhost:8080/cqf-ruler/baseDstu3/DiagnosticReport/DiagnosticReport-658071"
      }
    }
  ]
}