{
  "resourceType": "Bundle",
  "id": "Alfredo-Curtis-Cooley-III-6481-Encounter-571",
  "type": "transaction",
  "entry": [
    {
      "fullUrl": "http://localhost:8080/cqf-ruler/baseDstu3/Encounter/Encounter-571",
      "resource": {
        "resourceType": "Encounter",
        "id": "Encounter-571",
        "meta": {
          "profile": [
            "http://hl7.org/fhir/us/hedis/StructureDefinition/hedis-encounter"
          ]
        },
        "status": "finished",
        "class": {
          "system": "http://hl7.org/fhir/encounter-class",
          "code": "outpatient",
          "display": "Outpatient"
        },
        "type": [
          {
            "coding": [
              {
                "system": "http://snomed.info/sct",
                "code": "170258001",
                "display": "Wellness Visit"
              }
            ]
          }
        ],
        "subject": {
          "reference": "Patient/Patient-6481",
          "display": "Alfredo Curtis Cooley III"
        },
        "participant": [
          {
            "period": {
              "start": "1993-05-07T00:00:00-04:00",
              "end": "1993-05-07T00:00:00-04:00"
            },
            "individual": {
              "reference": "Practitioner/Practitioner-2518",
              "display": "Jane Rosemary Saunders MD"
            }
          }
        ],
        "period": {
          "start": "1993-05-07T00:00:00-04:00",
          "end": "1993-05-07T00:00:00-04:00"
        },
        "location": [
          {
            "location": {
              "reference": "Location/Location-1103",
              "display": "Acme Medical Center"
            }
          }
        ],
        "serviceProvider": {
          "reference": "Organization/Organization-1103",
          "display": "Acme Medical Center"
        }
      },
      "request": {
        "method": "PUT",
        "url": "http://localhost:8080/cqf-ruler/baseDstu3/Encounter/Encounter-571"
      }
    },
    {
      "fullUrl": "http://localhost:8080/cqf-ruler/baseDstu3/Immunization/Immunization-80771",
      "resource": {
        "resourceType": "Immunization",
        "id": "Immunization-80771",
        "status": "completed",
        "notGiven": false,
        "vaccineCode": {
          "coding": [
            {
              "system": "http://hl7.org/fhir/sid/cvx",
              "code": "140",
              "display": "Influenza, seasonal, injectable, preservative free"
            }
          ]
        },
        "patient": {
          "reference": "Patient/Patient-6481",
          "display": "Alfredo Curtis Cooley III"
        },
        "date": "1993-05-07T00:00:00-04:00",
        "primarySource": true,
        "location": {
          "reference": "Location/Location-1103",
          "display": "Acme Medical Center"
        },
        "practitioner": [
          {
            "actor": {
              "reference": "Practitioner/Practitioner-2518",
              "display": "Jane Rosemary Saunders MD"
            }
          }
        ]
      },
      "request": {
        "method": "PUT",
        "url": "http://localhost:8080/cqf-ruler/baseDstu3/Immunization/Immunization-80771"
      }
    },
    {
      "fullUrl": "http://localhost:8080/cqf-ruler/baseDstu3/Observation/Observation-100690",
      "resource": {
        "resourceType": "Observation",
        "id": "Observation-100690",
        "meta": {
          "profile": [
            "http://hl7.org/fhir/us/hedis/StructureDefinition/hedis-observation"
          ]
        },
        "status": "final",
        "code": {
          "coding": [
            {
              "system": "http://loinc.org",
              "code": "8480-6",
              "display": "Systolic blood pressure"
            }
          ]
        },
        "subject": {
          "reference": "Patient/Patient-6481",
          "display": "Alfredo Curtis Cooley III"
        },
        "context": {
          "reference": "Encounter/Encounter-571",
          "display": "Wellness Visit"
        },
        "effectiveDateTime": "1993-05-07T00:00:00-04:00",
        "performer": [
          {
            "reference": "Practitioner/Practitioner-2518",
            "display": "Jane Rosemary Saunders MD"
          }
        ],
        "valueQuantity": {
          "value": 114.55384598748999,
          "unit": "mmHg"
        }
      },
      "request": {
        "method": "PUT",
        "url": "http://localhost:8080/cqf-ruler/baseDstu3/Observation/Observation-100690"
      }
    },
    {
      "fullUrl": "http://localhost:8080/cqf-ruler/baseDstu3/Observation/Observation-100691",
      "resource": {
        "resourceType": "Observation",
        "id": "Observation-100691",
        "meta": {
          "profile": [
            "http://hl7.org/fhir/us/hedis/StructureDefinition/hedis-observation"
          ]
        },
        "status": "final",
        "code": {
          "coding": [
            {
              "system": "http://loinc.org",
              "code": "8462-4",
              "display": "Diastolic blood pressure"
            }
          ]
        },
        "subject": {
          "reference": "Patient/Patient-6481",
          "display": "Alfredo Curtis Cooley III"
        },
        "context": {
          "reference": "Encounter/Encounter-571",
          "display": "Wellness Visit"
        },
        "effectiveDateTime": "1993-05-07T00:00:00-04:00",
        "performer": [
          {
            "reference": "Practitioner/Practitioner-2518",
            "display": "Jane Rosemary Saunders MD"
          }
        ],
        "valueQuantity": {
          "value": 81.50271966964792,
          "unit": "mmHg"
        }
      },
      "request": {
        "method": "PUT",
        "url": "http://localhost:8080/cqf-ruler/baseDstu3/Observation/Observation-100691"
      }
    },
    {
      "fullUrl": "http://localhost:8080/cqf-ruler/baseDstu3/Observation/Observation-100692",
      "resource": {
        "resourceType": "Observation",
        "id": "Observation-100692",
        "meta": {
          "profile": [
            "http://hl7.org/fhir/us/hedis/StructureDefinition/hedis-observation"
          ]
        },
        "status": "final",
        "code": {
          "coding": [
            {
              "system": "http://loinc.org",
              "code": "8302-2",
              "display": "Body Height"
            }
          ]
        },
        "subject": {
          "reference": "Patient/Patient-6481",
          "display": "Alfredo Curtis Cooley III"
        },
        "context": {
          "reference": "Encounter/Encounter-571",
          "display": "Wellness Visit"
        },
        "effectiveDateTime": "1993-05-07T00:00:00-04:00",
        "performer": [
          {
            "reference": "Practitioner/Practitioner-2518",
            "display": "Jane Rosemary Saunders MD"
          }
        ],
        "valueQuantity": {
          "value": 133.0,
          "unit": "cm"
        }
      },
      "request": {
        "method": "PUT",
        "url": "http://localhost:8080/cqf-ruler/baseDstu3/Observation/Observation-100692"
      }
    },
    {
      "fullUrl": "http://localhost:8080/cqf-ruler/baseDstu3/Observation/Observation-100693",
      "resource": {
        "resourceType": "Observation",
        "id": "Observation-100693",
        "meta": {
          "profile": [
            "http://hl7.org/fhir/us/hedis/StructureDefinition/hedis-observation"
          ]
        },
        "status": "final",
        "code": {
          "coding": [
            {
              "system": "http://loinc.org",
              "code": "29463-7",
              "display": "Body Weight"
            }
          ]
        },
        "subject": {
          "reference": "Patient/Patient-6481",
          "display": "Alfredo Curtis Cooley III"
        },
        "context": {
          "reference": "Encounter/Encounter-571",
          "display": "Wellness Visit"
        },
        "effectiveDateTime": "1993-05-07T00:00:00-04:00",
        "performer": [
          {
            "reference": "Practitioner/Practitioner-2518",
            "display": "Jane Rosemary Saunders MD"
          }
        ],
        "valueQuantity": {
          "value": 30.5,
          "unit": "kg"
        }
      },
      "request": {
        "method": "PUT",
        "url": "http://localhost:8080/cqf-ruler/baseDstu3/Observation/Observation-100693"
      }
    },
    {
      "fullUrl": "http://localhost:8080/cqf-ruler/baseDstu3/Observation/Observation-100694",
      "resource": {
        "resourceType": "Observation",
        "id": "Observation-100694",
        "meta": {
          "profile": [
            "http://hl7.org/fhir/us/hedis/StructureDefinition/hedis-observation"
          ]
        },
        "status": "final",
        "code": {
          "coding": [
            {
              "system": "http://loinc.org",
              "code": "39156-5",
              "display": "Body Mass Index"
            }
          ]
        },
        "subject": {
          "reference": "Patient/Patient-6481",
          "display": "Alfredo Curtis Cooley III"
        },
        "context": {
          "reference": "Encounter/Encounter-571",
          "display": "Wellness Visit"
        },
        "effectiveDateTime": "1993-05-07T00:00:00-04:00",
        "performer": [
          {
            "reference": "Practitioner/Practitioner-2518",
            "display": "Jane Rosemary Saunders MD"
          }
        ],
        "valueQuantity": {
          "value": 17.242354005314034,
          "unit": "kg/m2"
        }
      },
      "request": {
        "method": "PUT",
        "url": "http://localhost:8080/cqf-ruler/baseDstu3/Observation/Observation-100694"
      }
    },
    {
      "fullUrl": "http://localhost:8080/cqf-ruler/baseDstu3/Observation/Observation-100697",
      "resource": {
        "resourceType": "Observation",
        "id": "Observation-100697",
        "meta": {
          "profile": [
            "http://hl7.org/fhir/us/hedis/StructureDefinition/hedis-observation"
          ]
        },
        "status": "final",
        "code": {
          "coding": [
            {
              "system": "http://loinc.org",
              "code": "55284-4",
              "display": "Blood Pressure"
            }
          ]
        },
        "subject": {
          "reference": "Patient/Patient-6481",
          "display": "Alfredo Curtis Cooley III"
        },
        "context": {
          "reference": "Encounter/Encounter-571",
          "display": "Wellness Visit"
        },
        "effectiveDateTime": "1993-05-07T00:00:00-04:00",
        "valueQuantity": {
          "value": 81.50271966964792,
          "unit": "mmHg"
        },
        "component": [
          {
            "code": {
              "coding": [
                {
                  "system": "http://loinc.org",
                  "code": "8480-6",
                  "display": "Systolic Blood Pressure"
                }
              ]
            }
          },
          {
            "code": {
              "coding": [
                {
                  "system": "http://loinc.org",
                  "code": "8462-4",
                  "display": "Diastolic Blood Pressure"
                }
              ]
            }
          }
        ]
      },
      "request": {
        "method": "PUT",
        "url": "http://localhost:8080/cqf-ruler/baseDstu3/Observation/Observation-100697"
      }
    },
    {
      "fullUrl": "http://localhost:8080/cqf-ruler/baseDstu3/Observation/Observation-100699",
      "resource": {
        "resourceType": "Observation",
        "id": "Observation-100699",
        "status": "final",
        "code": {
          "coding": [
            {
              "system": "http://loinc.org",
              "code": "8302-2",
              "display": "Height"
            }
          ]
        },
        "subject": {
          "reference": "Patient/Patient-6481",
          "display": "Alfredo Curtis Cooley III"
        },
        "context": {
          "reference": "Encounter/Encounter-571",
          "display": "Wellness Visit"
        },
        "effectiveDateTime": "1993-05-07T00:00:00-04:00",
        "performer": [
          {
            "reference": "Practitioner/Practitioner-2518",
            "display": "Jane Rosemary Saunders MD"
          }
        ],
        "valueQuantity": {
          "value": 133.0,
          "unit": "cm"
        }
      },
      "request": {
        "method": "PUT",
        "url": "http://localhost:8080/cqf-ruler/baseDstu3/Observation/Observation-100699"
      }
    },
    {
      "fullUrl": "http://localhost:8080/cqf-ruler/baseDstu3/Observation/Observation-100700",
      "resource": {
        "resourceType": "Observation",
        "id": "Observation-100700",
        "status": "final",
        "code": {
          "coding": [
            {
              "system": "http://loinc.org",
              "code": "29463-7",
              "display": "Weight"
            }
          ]
        },
        "subject": {
          "reference": "Patient/Patient-6481",
          "display": "Alfredo Curtis Cooley III"
        },
        "context": {
          "reference": "Encounter/Encounter-571",
          "display": "Wellness Visit"
        },
        "effectiveDateTime": "1993-05-07T00:00:00-04:00",
        "performer": [
          {
            "reference": "Practitioner/Practitioner-2518",
            "display": "Jane Rosemary Saunders MD"
          }
        ],
        "valueQuantity": {
          "value": 30.5,
          "unit": "kg"
        }
      },
      "request": {
        "method": "PUT",
        "url": "http://localhost:8080/cqf-ruler/baseDstu3/Observation/Observation-100700"
      }
    },
    {
      "fullUrl": "http://localhost:8080/cqf-ruler/baseDstu3/Observation/Observation-100701",
      "resource": {
        "resourceType": "Observation",
        "id": "Observation-100701",
        "status": "final",
        "code": {
          "coding": [
            {
              "system": "http://loinc.org",
              "code": "39156-5",
              "display": "BMI"
            }
          ]
        },
        "subject": {
          "reference": "Patient/Patient-6481",
          "display": "Alfredo Curtis Cooley III"
        },
        "context": {
          "reference": "Encounter/Encounter-571",
          "display": "Wellness Visit"
        },
        "effectiveDateTime": "1993-05-07T00:00:00-04:00",
        "performer": [
          {
            "reference": "Practitioner/Practitioner-2518",
            "display": "Jane Rosemary Saunders MD"
          }
        ],
        "valueQuantity": {
          "value": 17.242354005314034,
          "unit": "kg/m2"
        }
      },
      "request": {
        "method": "PUT",
        "url": "http://localhost:8080/cqf-ruler/baseDstu3/Observation/Observation-100701"
      }
    },
    {
      "fullUrl": "http://localhost:8080/cqf-ruler/baseDstu3/Observation/Observation-100702",
      "resource": {
        "resourceType": "Observation",
        "id": "Observation-100702",
        "status": "final",
        "code": {
          "coding": [
            {
              "system": "http://loinc.org",
              "code": "8310-5",
              "display": "Temperature"
            }
          ]
        },
        "subject": {
          "reference": "Patient/Patient-6481",
          "display": "Alfredo Curtis Cooley III"
        },
        "context": {
          "reference": "Encounter/Encounter-571",
          "display": "Wellness Visit"
        },
        "effectiveDateTime": "1993-05-07T00:00:00-04:00",
        "performer": [
          {
            "reference": "Practitioner/Practitioner-2518",
            "display": "Jane Rosemary Saunders MD"
          }
        ],
        "valueQuantity": {
          "value": 37.0,
          "unit": "C"
        }
      },
      "request": {
        "method": "PUT",
        "url": "http://localhost:8080/cqf-ruler/baseDstu3/Observation/Observation-100702"
      }
    },
    {
      "fullUrl": "http://localhost:8080/cqf-ruler/baseDstu3/Observation/Observation-100703",
      "resource": {
        "resourceType": "Observation",
        "id": "Observation-100703",
        "status": "final",
        "code": {
          "coding": [
            {
              "system": "http://loinc.org",
              "code": "8459-0",
              "display": "Systolic Blood Pressure"
            }
          ]
        },
        "subject": {
          "reference": "Patient/Patient-6481",
          "display": "Alfredo Curtis Cooley III"
        },
        "context": {
          "reference": "Encounter/Encounter-571",
          "display": "Wellness Visit"
        },
        "effectiveDateTime": "1993-05-07T00:00:00-04:00",
        "performer": [
          {
            "reference": "Practitioner/Practitioner-2518",
            "display": "Jane Rosemary Saunders MD"
          }
        ],
        "valueQuantity": {
          "value": 114.55384598748999,
          "unit": "mmHg"
        }
      },
      "request": {
        "method": "PUT",
        "url": "http://localhost:8080/cqf-ruler/baseDstu3/Observation/Observation-100703"
      }
    },
    {
      "fullUrl": "http://localhost:8080/cqf-ruler/baseDstu3/Observation/Observation-100704",
      "resource": {
        "resourceType": "Observation",
        "id": "Observation-100704",
        "status": "final",
        "code": {
          "coding": [
            {
              "system": "http://loinc.org",
              "code": "8453-3",
              "display": "Diastolic Blood Pressure"
            }
          ]
        },
        "subject": {
          "reference": "Patient/Patient-6481",
          "display": "Alfredo Curtis Cooley III"
        },
        "context": {
          "reference": "Encounter/Encounter-571",
          "display": "Wellness Visit"
        },
        "effectiveDateTime": "1993-05-07T00:00:00-04:00",
        "performer": [
          {
            "reference": "Practitioner/Practitioner-2518",
            "display": "Jane Rosemary Saunders MD"
          }
        ],
        "valueQuantity": {
          "value": 81.50271966964792,
          "unit": "mmHg"
        }
      },
      "request": {
        "method": "PUT",
        "url": "http://localhost:8080/cqf-ruler/baseDstu3/Observation/Observation-100704"
      }
    },
    {
      "fullUrl": "http://localhost:8080/cqf-ruler/baseDstu3/DiagnosticReport/DiagnosticReport-100698",
      "resource": {
        "resourceType": "DiagnosticReport",
        "id": "DiagnosticReport-100698",
        "meta": {
          "profile": [
            "http://hl7.org/fhir/us/hedis/StructureDefinition/hedis-diagnosticreport"
          ]
        },
        "status": "final",
        "category": {
          "coding": [
            {
              "system": "http://hl7.org/fhir/ValueSet/diagnostic-service-sections",
              "code": "LAB",
              "display": "Laboratory"
            }
          ]
        },
        "code": {
          "coding": [
            {
              "system": "http://loinc.org",
              "code": "8716-3",
              "display": "Vital Signs Panel"
            }
          ]
        },
        "subject": {
          "reference": "Patient/Patient-6481",
          "display": "Alfredo Curtis Cooley III"
        },
        "context": {
          "reference": "Encounter/Encounter-571",
          "display": "Wellness Visit"
        },
        "effectivePeriod": {
          "start": "1993-05-07T00:00:00-04:00",
          "end": "1993-05-07T00:00:00-04:00"
        },
        "issued": "1993-05-07T00:00:00.000-04:00",
        "result": [
          {
            "reference": "Observation/Observation-100699",
            "display": "Height"
          },
          {
            "reference": "Observation/Observation-100700",
            "display": "Weight"
          },
          {
            "reference": "Observation/Observation-100701",
            "display": "BMI"
          },
          {
            "reference": "Observation/Observation-100702",
            "display": "Temperature"
          },
          {
            "reference": "Observation/Observation-100703",
            "display": "Systolic Blood Pressure"
          },
          {
            "reference": "Observation/Observation-100704",
            "display": "Diastolic Blood Pressure"
          }
        ]
      },
      "request": {
        "method": "PUT",
        "url": "http://localhost:8080/cqf-ruler/baseDstu3/DiagnosticReport/DiagnosticReport-100698"
      }
    }
  ]
}