{
  "resourceType": "Bundle",
  "id": "Darrell-Shaffer-Riggs-6551-Encounter-2598",
  "type": "transaction",
  "entry": [
    {
      "fullUrl": "http://localhost:8080/cqf-ruler/baseDstu3/Encounter/Encounter-2598",
      "resource": {
        "resourceType": "Encounter",
        "id": "Encounter-2598",
        "status": "finished",
        "class": {
          "system": "http://hl7.org/fhir/encounter-class",
          "code": "ambulatory",
          "display": "Ambulatory"
        },
        "subject": {
          "reference": "Patient/Patient-6551",
          "display": "Darrell Shaffer Riggs"
        },
        "participant": [
          {
            "period": {
              "start": "2013-07-03T05:00:00-04:00",
              "end": "2013-07-03T05:00:00-04:00"
            },
            "individual": {
              "reference": "Practitioner/Practitioner-2534",
              "display": "Pearl Rita Dawson MD"
            }
          }
        ],
        "period": {
          "start": "2013-07-03T05:00:00-04:00",
          "end": "2013-07-03T05:00:00-04:00"
        },
        "location": [
          {
            "location": {
              "reference": "Location/Location-1001",
              "display": "Windward General Hospital"
            }
          }
        ],
        "serviceProvider": {
          "reference": "Organization/Organization-1001",
          "display": "Windward General Hospital"
        }
      },
      "request": {
        "method": "PUT",
        "url": "http://localhost:8080/cqf-ruler/baseDstu3/Encounter/Encounter-2598"
      }
    },
    {
      "fullUrl": "http://localhost:8080/cqf-ruler/baseDstu3/MedicationRequest/MedicationRequest-555546",
      "resource": {
        "resourceType": "MedicationRequest",
        "id": "MedicationRequest-555546",
        "status": "active",
        "intent": "order",
        "medicationCodeableConcept": {
          "coding": [
            {
              "system": "http://www.nlm.nih.gov/research/umls/rxnorm",
              "code": "106892",
              "display": "insulin human, isophane 70 UNT/ML / Regular Insulin, Human 30 UNT/ML Injectable Suspension [Humulin]"
            }
          ]
        },
        "subject": {
          "reference": "Patient/Patient-6551",
          "display": "Darrell Shaffer Riggs"
        },
        "context": {
          "reference": "Encounter/Encounter-2598",
          "display": "Followup_Visit"
        },
        "authoredOn": "2013-07-03T05:00:00-04:00",
        "reasonCode": [
          {
            "coding": [
              {
                "system": "SNOMEDCT",
                "code": "46635009",
                "display": "Type 1 diabetes mellitus"
              }
            ]
          }
        ],
        "dosageInstruction": [
          {
            "timing": {
              "repeat": {
                "frequency": 1
              }
            },
            "doseQuantity": {
              "value": 1
            }
          }
        ],
        "dispenseRequest": {
          "validityPeriod": {
            "start": "2013-07-03T05:00:00-04:00",
            "end": "2013-07-03T05:00:00-04:00"
          }
        }
      },
      "request": {
        "method": "PUT",
        "url": "http://localhost:8080/cqf-ruler/baseDstu3/MedicationRequest/MedicationRequest-555546"
      }
    },
    {
      "fullUrl": "http://localhost:8080/cqf-ruler/baseDstu3/MedicationRequest/MedicationRequest-555547",
      "resource": {
        "resourceType": "MedicationRequest",
        "id": "MedicationRequest-555547",
        "status": "active",
        "intent": "order",
        "medicationCodeableConcept": {
          "coding": [
            {
              "system": "http://www.nlm.nih.gov/research/umls/rxnorm",
              "code": "897122",
              "display": "3 ML liraglutide 6 MG/ML Pen Injector"
            }
          ]
        },
        "subject": {
          "reference": "Patient/Patient-6551",
          "display": "Darrell Shaffer Riggs"
        },
        "context": {
          "reference": "Encounter/Encounter-2598",
          "display": "Followup_Visit"
        },
        "authoredOn": "2013-07-03T05:00:00-04:00",
        "reasonCode": [
          {
            "coding": [
              {
                "system": "SNOMEDCT",
                "code": "46635009",
                "display": "Type 1 diabetes mellitus"
              }
            ]
          }
        ],
        "dispenseRequest": {
          "validityPeriod": {
            "start": "2013-07-03T05:00:00-04:00",
            "end": "2013-07-03T05:00:00-04:00"
          }
        }
      },
      "request": {
        "method": "PUT",
        "url": "http://localhost:8080/cqf-ruler/baseDstu3/MedicationRequest/MedicationRequest-555547"
      }
    },
    {
      "fullUrl": "http://localhost:8080/cqf-ruler/baseDstu3/Observation/Observation-555550",
      "resource": {
        "resourceType": "Observation",
        "id": "Observation-555550",
        "status": "final",
        "code": {
          "coding": [
            {
              "system": "http://loinc.org",
              "code": "8302-2",
              "display": "Height"
            }
          ]
        },
        "subject": {
          "reference": "Patient/Patient-6551",
          "display": "Darrell Shaffer Riggs"
        },
        "context": {
          "reference": "Encounter/Encounter-2598",
          "display": "Followup_Visit"
        },
        "effectiveDateTime": "2013-07-03T05:00:00-04:00",
        "performer": [
          {
            "reference": "Practitioner/Practitioner-2534",
            "display": "Pearl Rita Dawson MD"
          }
        ],
        "valueQuantity": {
          "value": 172.0,
          "unit": "cm"
        }
      },
      "request": {
        "method": "PUT",
        "url": "http://localhost:8080/cqf-ruler/baseDstu3/Observation/Observation-555550"
      }
    },
    {
      "fullUrl": "http://localhost:8080/cqf-ruler/baseDstu3/Observation/Observation-555551",
      "resource": {
        "resourceType": "Observation",
        "id": "Observation-555551",
        "status": "final",
        "code": {
          "coding": [
            {
              "system": "http://loinc.org",
              "code": "29463-7",
              "display": "Weight"
            }
          ]
        },
        "subject": {
          "reference": "Patient/Patient-6551",
          "display": "Darrell Shaffer Riggs"
        },
        "context": {
          "reference": "Encounter/Encounter-2598",
          "display": "Followup_Visit"
        },
        "effectiveDateTime": "2013-07-03T05:00:00-04:00",
        "performer": [
          {
            "reference": "Practitioner/Practitioner-2534",
            "display": "Pearl Rita Dawson MD"
          }
        ],
        "valueQuantity": {
          "value": 71.75191452108247,
          "unit": "kg"
        }
      },
      "request": {
        "method": "PUT",
        "url": "http://localhost:8080/cqf-ruler/baseDstu3/Observation/Observation-555551"
      }
    },
    {
      "fullUrl": "http://localhost:8080/cqf-ruler/baseDstu3/Observation/Observation-555552",
      "resource": {
        "resourceType": "Observation",
        "id": "Observation-555552",
        "status": "final",
        "code": {
          "coding": [
            {
              "system": "http://loinc.org",
              "code": "39156-5",
              "display": "BMI"
            }
          ]
        },
        "subject": {
          "reference": "Patient/Patient-6551",
          "display": "Darrell Shaffer Riggs"
        },
        "context": {
          "reference": "Encounter/Encounter-2598",
          "display": "Followup_Visit"
        },
        "effectiveDateTime": "2013-07-03T05:00:00-04:00",
        "performer": [
          {
            "reference": "Practitioner/Practitioner-2534",
            "display": "Pearl Rita Dawson MD"
          }
        ],
        "valueQuantity": {
          "value": 24.25362172832696,
          "unit": "kg/m2"
        }
      },
      "request": {
        "method": "PUT",
        "url": "http://localhost:8080/cqf-ruler/baseDstu3/Observation/Observation-555552"
      }
    },
    {
      "fullUrl": "http://localhost:8080/cqf-ruler/baseDstu3/Observation/Observation-555553",
      "resource": {
        "resourceType": "Observation",
        "id": "Observation-555553",
        "status": "final",
        "code": {
          "coding": [
            {
              "system": "http://loinc.org",
              "code": "8310-5",
              "display": "Temperature"
            }
          ]
        },
        "subject": {
          "reference": "Patient/Patient-6551",
          "display": "Darrell Shaffer Riggs"
        },
        "context": {
          "reference": "Encounter/Encounter-2598",
          "display": "Followup_Visit"
        },
        "effectiveDateTime": "2013-07-03T05:00:00-04:00",
        "performer": [
          {
            "reference": "Practitioner/Practitioner-2534",
            "display": "Pearl Rita Dawson MD"
          }
        ],
        "valueQuantity": {
          "value": 37.0,
          "unit": "C"
        }
      },
      "request": {
        "method": "PUT",
        "url": "http://localhost:8080/cqf-ruler/baseDstu3/Observation/Observation-555553"
      }
    },
    {
      "fullUrl": "http://localhost:8080/cqf-ruler/baseDstu3/Observation/Observation-555554",
      "resource": {
        "resourceType": "Observation",
        "id": "Observation-555554",
        "status": "final",
        "code": {
          "coding": [
            {
              "system": "http://loinc.org",
              "code": "8459-0",
              "display": "Systolic Blood Pressure"
            }
          ]
        },
        "subject": {
          "reference": "Patient/Patient-6551",
          "display": "Darrell Shaffer Riggs"
        },
        "context": {
          "reference": "Encounter/Encounter-2598",
          "display": "Followup_Visit"
        },
        "effectiveDateTime": "2013-07-03T05:00:00-04:00",
        "performer": [
          {
            "reference": "Practitioner/Practitioner-2534",
            "display": "Pearl Rita Dawson MD"
          }
        ],
        "valueQuantity": {
          "value": 153.39377015260652,
          "unit": "mmHg"
        }
      },
      "request": {
        "method": "PUT",
        "url": "http://localhost:8080/cqf-ruler/baseDstu3/Observation/Observation-555554"
      }
    },
    {
      "fullUrl": "http://localhost:8080/cqf-ruler/baseDstu3/Observation/Observation-555555",
      "resource": {
        "resourceType": "Observation",
        "id": "Observation-555555",
        "status": "final",
        "code": {
          "coding": [
            {
              "system": "http://loinc.org",
              "code": "8453-3",
              "display": "Diastolic Blood Pressure"
            }
          ]
        },
        "subject": {
          "reference": "Patient/Patient-6551",
          "display": "Darrell Shaffer Riggs"
        },
        "context": {
          "reference": "Encounter/Encounter-2598",
          "display": "Followup_Visit"
        },
        "effectiveDateTime": "2013-07-03T05:00:00-04:00",
        "performer": [
          {
            "reference": "Practitioner/Practitioner-2534",
            "display": "Pearl Rita Dawson MD"
          }
        ],
        "valueQuantity": {
          "value": 115.43104099424058,
          "unit": "mmHg"
        }
      },
      "request": {
        "method": "PUT",
        "url": "http://localhost:8080/cqf-ruler/baseDstu3/Observation/Observation-555555"
      }
    },
    {
      "fullUrl": "http://localhost:8080/cqf-ruler/baseDstu3/DiagnosticReport/DiagnosticReport-555549",
      "resource": {
        "resourceType": "DiagnosticReport",
        "id": "DiagnosticReport-555549",
        "status": "final",
        "code": {
          "coding": [
            {
              "system": "http://loinc.org",
              "code": "8716-3",
              "display": "Vital Signs Panel"
            }
          ]
        },
        "subject": {
          "reference": "Patient/Patient-6551",
          "display": "Darrell Shaffer Riggs"
        },
        "context": {
          "reference": "Encounter/Encounter-2598",
          "display": "Followup_Visit"
        },
        "effectivePeriod": {
          "start": "2013-07-03T05:00:00-04:00",
          "end": "2013-07-03T05:00:00-04:00"
        },
        "issued": "2013-07-03T05:00:00.000-04:00",
        "result": [
          {
            "reference": "Observation/Observation-555550",
            "display": "Height"
          },
          {
            "reference": "Observation/Observation-555551",
            "display": "Weight"
          },
          {
            "reference": "Observation/Observation-555552",
            "display": "BMI"
          },
          {
            "reference": "Observation/Observation-555553",
            "display": "Temperature"
          },
          {
            "reference": "Observation/Observation-555554",
            "display": "Systolic Blood Pressure"
          },
          {
            "reference": "Observation/Observation-555555",
            "display": "Diastolic Blood Pressure"
          }
        ]
      },
      "request": {
        "method": "PUT",
        "url": "http://localhost:8080/cqf-ruler/baseDstu3/DiagnosticReport/DiagnosticReport-555549"
      }
    }
  ]
}