{
  "resourceType": "Bundle",
  "id": "Darrell-Shaffer-Riggs-6551-Encounter-1072",
  "type": "transaction",
  "entry": [
    {
      "fullUrl": "http://localhost:8080/cqf-ruler/baseDstu3/Encounter/Encounter-1072",
      "resource": {
        "resourceType": "Encounter",
        "id": "Encounter-1072",
        "status": "finished",
        "class": {
          "system": "http://hl7.org/fhir/encounter-class",
          "code": "inpatient",
          "display": "Inpatient"
        },
        "subject": {
          "reference": "Patient/Patient-6551",
          "display": "Darrell Shaffer Riggs"
        },
        "participant": [
          {
            "period": {
              "start": "1994-09-26T00:07:00-04:00",
              "end": "1994-09-26T00:59:00-04:00"
            },
            "individual": {
              "reference": "Practitioner/Practitioner-2534",
              "display": "Pearl Rita Dawson MD"
            }
          }
        ],
        "period": {
          "start": "1994-09-26T00:07:00-04:00",
          "end": "1994-09-26T00:59:00-04:00"
        },
        "location": [
          {
            "location": {
              "reference": "Location/Location-1001",
              "display": "Windward General Hospital"
            }
          }
        ],
        "serviceProvider": {
          "reference": "Organization/Organization-1001",
          "display": "Windward General Hospital"
        }
      },
      "request": {
        "method": "PUT",
        "url": "http://localhost:8080/cqf-ruler/baseDstu3/Encounter/Encounter-1072"
      }
    },
    {
      "fullUrl": "http://localhost:8080/cqf-ruler/baseDstu3/Procedure/Procedure-213641",
      "resource": {
        "resourceType": "Procedure",
        "id": "Procedure-213641",
        "status": "completed",
        "code": {
          "coding": [
            {
              "system": "http://www.ama-assn.org/go/cpt",
              "code": "45347",
              "display": "Sigmoidoscopy, flexible; with placement of endoscopic stent (includes pre- and post-dilation and guide wire passage, when performed)"
            }
          ]
        },
        "subject": {
          "reference": "Patient/Patient-6551",
          "display": "Darrell Shaffer Riggs"
        },
        "context": {
          "reference": "Encounter/Encounter-1072",
          "display": "Sigmoidoscopy_Encounter"
        },
        "performedPeriod": {
          "start": "1994-09-26T00:59:00-04:00",
          "end": "1994-09-26T00:59:00-04:00"
        },
        "performer": [
          {
            "actor": {
              "reference": "Practitioner/Practitioner-2534",
              "display": "Pearl Rita Dawson MD"
            }
          }
        ],
        "location": {
          "reference": "Location/Location-1001",
          "display": "Windward General Hospital"
        }
      },
      "request": {
        "method": "PUT",
        "url": "http://localhost:8080/cqf-ruler/baseDstu3/Procedure/Procedure-213641"
      }
    },
    {
      "fullUrl": "http://localhost:8080/cqf-ruler/baseDstu3/Observation/Observation-213642",
      "resource": {
        "resourceType": "Observation",
        "id": "Observation-213642",
        "status": "final",
        "code": {
          "coding": [
            {
              "system": "http://www.ama-assn.org/go/cpt",
              "code": "45335",
              "display": "Sigmoidoscopy, flexible; with directed submucosal injection(s), any substance"
            }
          ]
        },
        "subject": {
          "reference": "Patient/Patient-6551",
          "display": "Darrell Shaffer Riggs"
        },
        "context": {
          "reference": "Encounter/Encounter-1072",
          "display": "Sigmoidoscopy_Encounter"
        },
        "effectivePeriod": {
          "start": "1994-09-26T00:59:00-04:00",
          "end": "1994-09-26T00:59:00-04:00"
        },
        "performer": [
          {
            "reference": "Practitioner/Practitioner-2534",
            "display": "Pearl Rita Dawson MD"
          }
        ],
        "valueString": "NEGATIVE"
      },
      "request": {
        "method": "PUT",
        "url": "http://localhost:8080/cqf-ruler/baseDstu3/Observation/Observation-213642"
      }
    },
    {
      "fullUrl": "http://localhost:8080/cqf-ruler/baseDstu3/DiagnosticReport/DiagnosticReport-213643",
      "resource": {
        "resourceType": "DiagnosticReport",
        "id": "DiagnosticReport-213643",
        "status": "final",
        "code": {
          "coding": [
            {
              "system": "http://www.ama-assn.org/go/cpt",
              "code": "45347",
              "display": "Sigmoidoscopy, flexible; with placement of endoscopic stent (includes pre- and post-dilation and guide wire passage, when performed)"
            }
          ]
        },
        "subject": {
          "reference": "Patient/Patient-6551",
          "display": "Darrell Shaffer Riggs"
        },
        "context": {
          "reference": "Encounter/Encounter-1072",
          "display": "Sigmoidoscopy_Encounter"
        },
        "effectivePeriod": {
          "start": "1994-09-26T00:59:00-04:00",
          "end": "1994-09-26T00:59:00-04:00"
        },
        "issued": "1994-09-26T00:59:00.000-04:00",
        "result": [
          {
            "reference": "Observation/Observation-213642",
            "display": "Negative_Sigmoidoscopy_Observation"
          }
        ]
      },
      "request": {
        "method": "PUT",
        "url": "http://localhost:8080/cqf-ruler/baseDstu3/DiagnosticReport/DiagnosticReport-213643"
      }
    },
    {
      "fullUrl": "http://localhost:8080/cqf-ruler/baseDstu3/Observation/Observation-213646",
      "resource": {
        "resourceType": "Observation",
        "id": "Observation-213646",
        "status": "final",
        "code": {
          "coding": [
            {
              "system": "http://loinc.org",
              "code": "8302-2",
              "display": "Height"
            }
          ]
        },
        "subject": {
          "reference": "Patient/Patient-6551",
          "display": "Darrell Shaffer Riggs"
        },
        "context": {
          "reference": "Encounter/Encounter-1072",
          "display": "Sigmoidoscopy_Encounter"
        },
        "effectiveDateTime": "1994-09-26T00:07:00-04:00",
        "performer": [
          {
            "reference": "Practitioner/Practitioner-2534",
            "display": "Pearl Rita Dawson MD"
          }
        ],
        "valueQuantity": {
          "value": 172.0,
          "unit": "cm"
        }
      },
      "request": {
        "method": "PUT",
        "url": "http://localhost:8080/cqf-ruler/baseDstu3/Observation/Observation-213646"
      }
    },
    {
      "fullUrl": "http://localhost:8080/cqf-ruler/baseDstu3/Observation/Observation-213647",
      "resource": {
        "resourceType": "Observation",
        "id": "Observation-213647",
        "status": "final",
        "code": {
          "coding": [
            {
              "system": "http://loinc.org",
              "code": "29463-7",
              "display": "Weight"
            }
          ]
        },
        "subject": {
          "reference": "Patient/Patient-6551",
          "display": "Darrell Shaffer Riggs"
        },
        "context": {
          "reference": "Encounter/Encounter-1072",
          "display": "Sigmoidoscopy_Encounter"
        },
        "effectiveDateTime": "1994-09-26T00:07:00-04:00",
        "performer": [
          {
            "reference": "Practitioner/Practitioner-2534",
            "display": "Pearl Rita Dawson MD"
          }
        ],
        "valueQuantity": {
          "value": 63.391158465030955,
          "unit": "kg"
        }
      },
      "request": {
        "method": "PUT",
        "url": "http://localhost:8080/cqf-ruler/baseDstu3/Observation/Observation-213647"
      }
    },
    {
      "fullUrl": "http://localhost:8080/cqf-ruler/baseDstu3/Observation/Observation-213648",
      "resource": {
        "resourceType": "Observation",
        "id": "Observation-213648",
        "status": "final",
        "code": {
          "coding": [
            {
              "system": "http://loinc.org",
              "code": "39156-5",
              "display": "BMI"
            }
          ]
        },
        "subject": {
          "reference": "Patient/Patient-6551",
          "display": "Darrell Shaffer Riggs"
        },
        "context": {
          "reference": "Encounter/Encounter-1072",
          "display": "Sigmoidoscopy_Encounter"
        },
        "effectiveDateTime": "1994-09-26T00:07:00-04:00",
        "performer": [
          {
            "reference": "Practitioner/Practitioner-2534",
            "display": "Pearl Rita Dawson MD"
          }
        ],
        "valueQuantity": {
          "value": 21.42751435405319,
          "unit": "kg/m2"
        }
      },
      "request": {
        "method": "PUT",
        "url": "http://localhost:8080/cqf-ruler/baseDstu3/Observation/Observation-213648"
      }
    },
    {
      "fullUrl": "http://localhost:8080/cqf-ruler/baseDstu3/Observation/Observation-213649",
      "resource": {
        "resourceType": "Observation",
        "id": "Observation-213649",
        "status": "final",
        "code": {
          "coding": [
            {
              "system": "http://loinc.org",
              "code": "8310-5",
              "display": "Temperature"
            }
          ]
        },
        "subject": {
          "reference": "Patient/Patient-6551",
          "display": "Darrell Shaffer Riggs"
        },
        "context": {
          "reference": "Encounter/Encounter-1072",
          "display": "Sigmoidoscopy_Encounter"
        },
        "effectiveDateTime": "1994-09-26T00:07:00-04:00",
        "performer": [
          {
            "reference": "Practitioner/Practitioner-2534",
            "display": "Pearl Rita Dawson MD"
          }
        ],
        "valueQuantity": {
          "value": 37.0,
          "unit": "C"
        }
      },
      "request": {
        "method": "PUT",
        "url": "http://localhost:8080/cqf-ruler/baseDstu3/Observation/Observation-213649"
      }
    },
    {
      "fullUrl": "http://localhost:8080/cqf-ruler/baseDstu3/Observation/Observation-213650",
      "resource": {
        "resourceType": "Observation",
        "id": "Observation-213650",
        "status": "final",
        "code": {
          "coding": [
            {
              "system": "http://loinc.org",
              "code": "8459-0",
              "display": "Systolic Blood Pressure"
            }
          ]
        },
        "subject": {
          "reference": "Patient/Patient-6551",
          "display": "Darrell Shaffer Riggs"
        },
        "context": {
          "reference": "Encounter/Encounter-1072",
          "display": "Sigmoidoscopy_Encounter"
        },
        "effectiveDateTime": "1994-09-26T00:07:00-04:00",
        "performer": [
          {
            "reference": "Practitioner/Practitioner-2534",
            "display": "Pearl Rita Dawson MD"
          }
        ],
        "valueQuantity": {
          "value": 100.35861912829908,
          "unit": "mmHg"
        }
      },
      "request": {
        "method": "PUT",
        "url": "http://localhost:8080/cqf-ruler/baseDstu3/Observation/Observation-213650"
      }
    },
    {
      "fullUrl": "http://localhost:8080/cqf-ruler/baseDstu3/Observation/Observation-213651",
      "resource": {
        "resourceType": "Observation",
        "id": "Observation-213651",
        "status": "final",
        "code": {
          "coding": [
            {
              "system": "http://loinc.org",
              "code": "8453-3",
              "display": "Diastolic Blood Pressure"
            }
          ]
        },
        "subject": {
          "reference": "Patient/Patient-6551",
          "display": "Darrell Shaffer Riggs"
        },
        "context": {
          "reference": "Encounter/Encounter-1072",
          "display": "Sigmoidoscopy_Encounter"
        },
        "effectiveDateTime": "1994-09-26T00:07:00-04:00",
        "performer": [
          {
            "reference": "Practitioner/Practitioner-2534",
            "display": "Pearl Rita Dawson MD"
          }
        ],
        "valueQuantity": {
          "value": 109.15975043932538,
          "unit": "mmHg"
        }
      },
      "request": {
        "method": "PUT",
        "url": "http://localhost:8080/cqf-ruler/baseDstu3/Observation/Observation-213651"
      }
    },
    {
      "fullUrl": "http://localhost:8080/cqf-ruler/baseDstu3/DiagnosticReport/DiagnosticReport-213645",
      "resource": {
        "resourceType": "DiagnosticReport",
        "id": "DiagnosticReport-213645",
        "status": "final",
        "code": {
          "coding": [
            {
              "system": "http://loinc.org",
              "code": "8716-3",
              "display": "Vital Signs Panel"
            }
          ]
        },
        "subject": {
          "reference": "Patient/Patient-6551",
          "display": "Darrell Shaffer Riggs"
        },
        "context": {
          "reference": "Encounter/Encounter-1072",
          "display": "Sigmoidoscopy_Encounter"
        },
        "effectivePeriod": {
          "start": "1994-09-26T00:07:00-04:00",
          "end": "1994-09-26T00:07:00-04:00"
        },
        "issued": "1994-09-26T00:07:00.000-04:00",
        "result": [
          {
            "reference": "Observation/Observation-213646",
            "display": "Height"
          },
          {
            "reference": "Observation/Observation-213647",
            "display": "Weight"
          },
          {
            "reference": "Observation/Observation-213648",
            "display": "BMI"
          },
          {
            "reference": "Observation/Observation-213649",
            "display": "Temperature"
          },
          {
            "reference": "Observation/Observation-213650",
            "display": "Systolic Blood Pressure"
          },
          {
            "reference": "Observation/Observation-213651",
            "display": "Diastolic Blood Pressure"
          }
        ]
      },
      "request": {
        "method": "PUT",
        "url": "http://localhost:8080/cqf-ruler/baseDstu3/DiagnosticReport/DiagnosticReport-213645"
      }
    }
  ]
}