{
  "resourceType": "Bundle",
  "id": "Phillip-Ball-Reilly-Jr-6528-Encounter-2285",
  "type": "transaction",
  "entry": [
    {
      "fullUrl": "http://localhost:8080/cqf-ruler/baseDstu3/Encounter/Encounter-2285",
      "resource": {
        "resourceType": "Encounter",
        "id": "Encounter-2285",
        "status": "finished",
        "class": {
          "system": "http://hl7.org/fhir/encounter-class",
          "code": "inpatient",
          "display": "Inpatient"
        },
        "subject": {
          "reference": "Patient/Patient-6528",
          "display": "Phillip Ball Reilly Jr"
        },
        "participant": [
          {
            "period": {
              "start": "2003-04-21T00:06:00-04:00",
              "end": "2003-04-21T01:15:00-04:00"
            },
            "individual": {
              "reference": "Practitioner/Practitioner-2528",
              "display": "Tanya Sally Wheeler MD"
            }
          }
        ],
        "period": {
          "start": "2003-04-21T00:06:00-04:00",
          "end": "2003-04-21T01:15:00-04:00"
        },
        "location": [
          {
            "location": {
              "reference": "Location/Location-1002",
              "display": "Gift of Mercy Hospital"
            }
          }
        ],
        "serviceProvider": {
          "reference": "Organization/Organization-1002",
          "display": "Gift of Mercy Hospital"
        }
      },
      "request": {
        "method": "PUT",
        "url": "http://localhost:8080/cqf-ruler/baseDstu3/Encounter/Encounter-2285"
      }
    },
    {
      "fullUrl": "http://localhost:8080/cqf-ruler/baseDstu3/Procedure/Procedure-498768",
      "resource": {
        "resourceType": "Procedure",
        "id": "Procedure-498768",
        "status": "completed",
        "code": {
          "coding": [
            {
              "system": "http://www.ama-assn.org/go/cpt",
              "code": "45338",
              "display": "Sigmoidoscopy, flexible; with removal of tumor(s), polyp(s), or other lesion(s) by snare technique"
            }
          ]
        },
        "subject": {
          "reference": "Patient/Patient-6528",
          "display": "Phillip Ball Reilly Jr"
        },
        "context": {
          "reference": "Encounter/Encounter-2285",
          "display": "Sigmoidoscopy_Encounter"
        },
        "performedPeriod": {
          "start": "2003-04-21T01:15:00-04:00",
          "end": "2003-04-21T01:15:00-04:00"
        },
        "performer": [
          {
            "actor": {
              "reference": "Practitioner/Practitioner-2528",
              "display": "Tanya Sally Wheeler MD"
            }
          }
        ],
        "location": {
          "reference": "Location/Location-1002",
          "display": "Gift of Mercy Hospital"
        }
      },
      "request": {
        "method": "PUT",
        "url": "http://localhost:8080/cqf-ruler/baseDstu3/Procedure/Procedure-498768"
      }
    },
    {
      "fullUrl": "http://localhost:8080/cqf-ruler/baseDstu3/Observation/Observation-498770",
      "resource": {
        "resourceType": "Observation",
        "id": "Observation-498770",
        "status": "final",
        "code": {
          "coding": [
            {
              "system": "http://www.ama-assn.org/go/cpt",
              "code": "45331",
              "display": "Sigmoidoscopy, flexible; with biopsy, single or multiple"
            }
          ]
        },
        "subject": {
          "reference": "Patient/Patient-6528",
          "display": "Phillip Ball Reilly Jr"
        },
        "context": {
          "reference": "Encounter/Encounter-2285",
          "display": "Sigmoidoscopy_Encounter"
        },
        "effectivePeriod": {
          "start": "2003-04-21T01:15:00-04:00",
          "end": "2003-04-21T01:15:00-04:00"
        },
        "performer": [
          {
            "reference": "Practitioner/Practitioner-2528",
            "display": "Tanya Sally Wheeler MD"
          }
        ],
        "valueString": "POSITIVE"
      },
      "request": {
        "method": "PUT",
        "url": "http://localhost:8080/cqf-ruler/baseDstu3/Observation/Observation-498770"
      }
    },
    {
      "fullUrl": "http://localhost:8080/cqf-ruler/baseDstu3/DiagnosticReport/DiagnosticReport-498771",
      "resource": {
        "resourceType": "DiagnosticReport",
        "id": "DiagnosticReport-498771",
        "status": "final",
        "code": {
          "coding": [
            {
              "system": "http://www.ama-assn.org/go/cpt",
              "code": "45340",
              "display": "Sigmoidoscopy, flexible; with transendoscopic balloon dilation"
            }
          ]
        },
        "subject": {
          "reference": "Patient/Patient-6528",
          "display": "Phillip Ball Reilly Jr"
        },
        "context": {
          "reference": "Encounter/Encounter-2285",
          "display": "Sigmoidoscopy_Encounter"
        },
        "effectivePeriod": {
          "start": "2003-04-21T01:15:00-04:00",
          "end": "2003-04-21T01:15:00-04:00"
        },
        "issued": "2003-04-21T01:15:00.000-04:00",
        "result": [
          {
            "reference": "Observation/Observation-498770",
            "display": "Positive_Sigmoidoscopy_Observation"
          }
        ]
      },
      "request": {
        "method": "PUT",
        "url": "http://localhost:8080/cqf-ruler/baseDstu3/DiagnosticReport/DiagnosticReport-498771"
      }
    },
    {
      "fullUrl": "http://localhost:8080/cqf-ruler/baseDstu3/Observation/Observation-498774",
      "resource": {
        "resourceType": "Observation",
        "id": "Observation-498774",
        "status": "final",
        "code": {
          "coding": [
            {
              "system": "http://loinc.org",
              "code": "8302-2",
              "display": "Height"
            }
          ]
        },
        "subject": {
          "reference": "Patient/Patient-6528",
          "display": "Phillip Ball Reilly Jr"
        },
        "context": {
          "reference": "Encounter/Encounter-2285",
          "display": "Sigmoidoscopy_Encounter"
        },
        "effectiveDateTime": "2003-04-21T00:06:00-04:00",
        "performer": [
          {
            "reference": "Practitioner/Practitioner-2528",
            "display": "Tanya Sally Wheeler MD"
          }
        ],
        "valueQuantity": {
          "value": 186.0,
          "unit": "cm"
        }
      },
      "request": {
        "method": "PUT",
        "url": "http://localhost:8080/cqf-ruler/baseDstu3/Observation/Observation-498774"
      }
    },
    {
      "fullUrl": "http://localhost:8080/cqf-ruler/baseDstu3/Observation/Observation-498775",
      "resource": {
        "resourceType": "Observation",
        "id": "Observation-498775",
        "status": "final",
        "code": {
          "coding": [
            {
              "system": "http://loinc.org",
              "code": "29463-7",
              "display": "Weight"
            }
          ]
        },
        "subject": {
          "reference": "Patient/Patient-6528",
          "display": "Phillip Ball Reilly Jr"
        },
        "context": {
          "reference": "Encounter/Encounter-2285",
          "display": "Sigmoidoscopy_Encounter"
        },
        "effectiveDateTime": "2003-04-21T00:06:00-04:00",
        "performer": [
          {
            "reference": "Practitioner/Practitioner-2528",
            "display": "Tanya Sally Wheeler MD"
          }
        ],
        "valueQuantity": {
          "value": 119.44740567113625,
          "unit": "kg"
        }
      },
      "request": {
        "method": "PUT",
        "url": "http://localhost:8080/cqf-ruler/baseDstu3/Observation/Observation-498775"
      }
    },
    {
      "fullUrl": "http://localhost:8080/cqf-ruler/baseDstu3/Observation/Observation-498776",
      "resource": {
        "resourceType": "Observation",
        "id": "Observation-498776",
        "status": "final",
        "code": {
          "coding": [
            {
              "system": "http://loinc.org",
              "code": "39156-5",
              "display": "BMI"
            }
          ]
        },
        "subject": {
          "reference": "Patient/Patient-6528",
          "display": "Phillip Ball Reilly Jr"
        },
        "context": {
          "reference": "Encounter/Encounter-2285",
          "display": "Sigmoidoscopy_Encounter"
        },
        "effectiveDateTime": "2003-04-21T00:06:00-04:00",
        "performer": [
          {
            "reference": "Practitioner/Practitioner-2528",
            "display": "Tanya Sally Wheeler MD"
          }
        ],
        "valueQuantity": {
          "value": 34.52636306831317,
          "unit": "kg/m2"
        }
      },
      "request": {
        "method": "PUT",
        "url": "http://localhost:8080/cqf-ruler/baseDstu3/Observation/Observation-498776"
      }
    },
    {
      "fullUrl": "http://localhost:8080/cqf-ruler/baseDstu3/Observation/Observation-498777",
      "resource": {
        "resourceType": "Observation",
        "id": "Observation-498777",
        "status": "final",
        "code": {
          "coding": [
            {
              "system": "http://loinc.org",
              "code": "8310-5",
              "display": "Temperature"
            }
          ]
        },
        "subject": {
          "reference": "Patient/Patient-6528",
          "display": "Phillip Ball Reilly Jr"
        },
        "context": {
          "reference": "Encounter/Encounter-2285",
          "display": "Sigmoidoscopy_Encounter"
        },
        "effectiveDateTime": "2003-04-21T00:06:00-04:00",
        "performer": [
          {
            "reference": "Practitioner/Practitioner-2528",
            "display": "Tanya Sally Wheeler MD"
          }
        ],
        "valueQuantity": {
          "value": 37.0,
          "unit": "C"
        }
      },
      "request": {
        "method": "PUT",
        "url": "http://localhost:8080/cqf-ruler/baseDstu3/Observation/Observation-498777"
      }
    },
    {
      "fullUrl": "http://localhost:8080/cqf-ruler/baseDstu3/Observation/Observation-498778",
      "resource": {
        "resourceType": "Observation",
        "id": "Observation-498778",
        "status": "final",
        "code": {
          "coding": [
            {
              "system": "http://loinc.org",
              "code": "8459-0",
              "display": "Systolic Blood Pressure"
            }
          ]
        },
        "subject": {
          "reference": "Patient/Patient-6528",
          "display": "Phillip Ball Reilly Jr"
        },
        "context": {
          "reference": "Encounter/Encounter-2285",
          "display": "Sigmoidoscopy_Encounter"
        },
        "effectiveDateTime": "2003-04-21T00:06:00-04:00",
        "performer": [
          {
            "reference": "Practitioner/Practitioner-2528",
            "display": "Tanya Sally Wheeler MD"
          }
        ],
        "valueQuantity": {
          "value": 138.09006493855836,
          "unit": "mmHg"
        }
      },
      "request": {
        "method": "PUT",
        "url": "http://localhost:8080/cqf-ruler/baseDstu3/Observation/Observation-498778"
      }
    },
    {
      "fullUrl": "http://localhost:8080/cqf-ruler/baseDstu3/Observation/Observation-498779",
      "resource": {
        "resourceType": "Observation",
        "id": "Observation-498779",
        "status": "final",
        "code": {
          "coding": [
            {
              "system": "http://loinc.org",
              "code": "8453-3",
              "display": "Diastolic Blood Pressure"
            }
          ]
        },
        "subject": {
          "reference": "Patient/Patient-6528",
          "display": "Phillip Ball Reilly Jr"
        },
        "context": {
          "reference": "Encounter/Encounter-2285",
          "display": "Sigmoidoscopy_Encounter"
        },
        "effectiveDateTime": "2003-04-21T00:06:00-04:00",
        "performer": [
          {
            "reference": "Practitioner/Practitioner-2528",
            "display": "Tanya Sally Wheeler MD"
          }
        ],
        "valueQuantity": {
          "value": 89.70652610247329,
          "unit": "mmHg"
        }
      },
      "request": {
        "method": "PUT",
        "url": "http://localhost:8080/cqf-ruler/baseDstu3/Observation/Observation-498779"
      }
    },
    {
      "fullUrl": "http://localhost:8080/cqf-ruler/baseDstu3/DiagnosticReport/DiagnosticReport-498773",
      "resource": {
        "resourceType": "DiagnosticReport",
        "id": "DiagnosticReport-498773",
        "status": "final",
        "code": {
          "coding": [
            {
              "system": "http://loinc.org",
              "code": "8716-3",
              "display": "Vital Signs Panel"
            }
          ]
        },
        "subject": {
          "reference": "Patient/Patient-6528",
          "display": "Phillip Ball Reilly Jr"
        },
        "context": {
          "reference": "Encounter/Encounter-2285",
          "display": "Sigmoidoscopy_Encounter"
        },
        "effectivePeriod": {
          "start": "2003-04-21T00:06:00-04:00",
          "end": "2003-04-21T00:06:00-04:00"
        },
        "issued": "2003-04-21T00:06:00.000-04:00",
        "result": [
          {
            "reference": "Observation/Observation-498774",
            "display": "Height"
          },
          {
            "reference": "Observation/Observation-498775",
            "display": "Weight"
          },
          {
            "reference": "Observation/Observation-498776",
            "display": "BMI"
          },
          {
            "reference": "Observation/Observation-498777",
            "display": "Temperature"
          },
          {
            "reference": "Observation/Observation-498778",
            "display": "Systolic Blood Pressure"
          },
          {
            "reference": "Observation/Observation-498779",
            "display": "Diastolic Blood Pressure"
          }
        ]
      },
      "request": {
        "method": "PUT",
        "url": "http://localhost:8080/cqf-ruler/baseDstu3/DiagnosticReport/DiagnosticReport-498773"
      }
    }
  ]
}