{
  "resourceType": "Bundle",
  "id": "Carolyn-Gillespie-Gallegos-6512-Encounter-2686",
  "type": "transaction",
  "entry": [
    {
      "fullUrl": "http://localhost:8080/cqf-ruler/baseDstu3/Encounter/Encounter-2686",
      "resource": {
        "resourceType": "Encounter",
        "id": "Encounter-2686",
        "meta": {
          "profile": [
            "http://hl7.org/fhir/us/hedis/StructureDefinition/hedis-encounter"
          ]
        },
        "status": "finished",
        "class": {
          "system": "http://hl7.org/fhir/encounter-class",
          "code": "ambulatory",
          "display": "Ambulatory"
        },
        "type": [
          {
            "coding": [
              {
                "system": "http://snomed.info/sct",
                "code": "185345009",
                "display": "Encounter for symptom"
              }
            ]
          }
        ],
        "subject": {
          "reference": "Patient/Patient-6512",
          "display": "Carolyn Gillespie Gallegos"
        },
        "participant": [
          {
            "period": {
              "start": "2013-03-22T22:00:00-04:00",
              "end": "2013-03-22T22:00:00-04:00"
            },
            "individual": {
              "reference": "Practitioner/Practitioner-2527",
              "display": "Lee Chris Mejia MD"
            }
          }
        ],
        "period": {
          "start": "2013-03-22T22:00:00-04:00",
          "end": "2013-03-22T22:00:00-04:00"
        },
        "reason": [
          {
            "coding": [
              {
                "system": "http://snomed.info/sct",
                "code": "44054006",
                "display": "Type 2 diabetes mellitus"
              }
            ]
          }
        ],
        "location": [
          {
            "location": {
              "reference": "Location/Location-1002",
              "display": "Gift of Mercy Hospital"
            }
          }
        ],
        "serviceProvider": {
          "reference": "Organization/Organization-1002",
          "display": "Gift of Mercy Hospital"
        }
      },
      "request": {
        "method": "PUT",
        "url": "http://localhost:8080/cqf-ruler/baseDstu3/Encounter/Encounter-2686"
      }
    },
    {
      "fullUrl": "http://localhost:8080/cqf-ruler/baseDstu3/Observation/Observation-550267",
      "resource": {
        "resourceType": "Observation",
        "id": "Observation-550267",
        "status": "final",
        "code": {
          "coding": [
            {
              "system": "http://loinc.org",
              "code": "8302-2",
              "display": "Height"
            }
          ]
        },
        "subject": {
          "reference": "Patient/Patient-6512",
          "display": "Carolyn Gillespie Gallegos"
        },
        "context": {
          "reference": "Encounter/Encounter-2686",
          "display": "Followup_Visit"
        },
        "effectiveDateTime": "2013-03-22T22:00:00-04:00",
        "performer": [
          {
            "reference": "Practitioner/Practitioner-2527",
            "display": "Lee Chris Mejia MD"
          }
        ],
        "valueQuantity": {
          "value": 152.7,
          "unit": "cm"
        }
      },
      "request": {
        "method": "PUT",
        "url": "http://localhost:8080/cqf-ruler/baseDstu3/Observation/Observation-550267"
      }
    },
    {
      "fullUrl": "http://localhost:8080/cqf-ruler/baseDstu3/Observation/Observation-550268",
      "resource": {
        "resourceType": "Observation",
        "id": "Observation-550268",
        "status": "final",
        "code": {
          "coding": [
            {
              "system": "http://loinc.org",
              "code": "29463-7",
              "display": "Weight"
            }
          ]
        },
        "subject": {
          "reference": "Patient/Patient-6512",
          "display": "Carolyn Gillespie Gallegos"
        },
        "context": {
          "reference": "Encounter/Encounter-2686",
          "display": "Followup_Visit"
        },
        "effectiveDateTime": "2013-03-22T22:00:00-04:00",
        "performer": [
          {
            "reference": "Practitioner/Practitioner-2527",
            "display": "Lee Chris Mejia MD"
          }
        ],
        "valueQuantity": {
          "value": 93.63808161016087,
          "unit": "kg"
        }
      },
      "request": {
        "method": "PUT",
        "url": "http://localhost:8080/cqf-ruler/baseDstu3/Observation/Observation-550268"
      }
    },
    {
      "fullUrl": "http://localhost:8080/cqf-ruler/baseDstu3/Observation/Observation-550269",
      "resource": {
        "resourceType": "Observation",
        "id": "Observation-550269",
        "status": "final",
        "code": {
          "coding": [
            {
              "system": "http://loinc.org",
              "code": "39156-5",
              "display": "BMI"
            }
          ]
        },
        "subject": {
          "reference": "Patient/Patient-6512",
          "display": "Carolyn Gillespie Gallegos"
        },
        "context": {
          "reference": "Encounter/Encounter-2686",
          "display": "Followup_Visit"
        },
        "effectiveDateTime": "2013-03-22T22:00:00-04:00",
        "performer": [
          {
            "reference": "Practitioner/Practitioner-2527",
            "display": "Lee Chris Mejia MD"
          }
        ],
        "valueQuantity": {
          "value": 40.158218047706605,
          "unit": "kg/m2"
        }
      },
      "request": {
        "method": "PUT",
        "url": "http://localhost:8080/cqf-ruler/baseDstu3/Observation/Observation-550269"
      }
    },
    {
      "fullUrl": "http://localhost:8080/cqf-ruler/baseDstu3/Observation/Observation-550270",
      "resource": {
        "resourceType": "Observation",
        "id": "Observation-550270",
        "status": "final",
        "code": {
          "coding": [
            {
              "system": "http://loinc.org",
              "code": "8310-5",
              "display": "Temperature"
            }
          ]
        },
        "subject": {
          "reference": "Patient/Patient-6512",
          "display": "Carolyn Gillespie Gallegos"
        },
        "context": {
          "reference": "Encounter/Encounter-2686",
          "display": "Followup_Visit"
        },
        "effectiveDateTime": "2013-03-22T22:00:00-04:00",
        "performer": [
          {
            "reference": "Practitioner/Practitioner-2527",
            "display": "Lee Chris Mejia MD"
          }
        ],
        "valueQuantity": {
          "value": 37.0,
          "unit": "C"
        }
      },
      "request": {
        "method": "PUT",
        "url": "http://localhost:8080/cqf-ruler/baseDstu3/Observation/Observation-550270"
      }
    },
    {
      "fullUrl": "http://localhost:8080/cqf-ruler/baseDstu3/Observation/Observation-550271",
      "resource": {
        "resourceType": "Observation",
        "id": "Observation-550271",
        "status": "final",
        "code": {
          "coding": [
            {
              "system": "http://loinc.org",
              "code": "8459-0",
              "display": "Systolic Blood Pressure"
            }
          ]
        },
        "subject": {
          "reference": "Patient/Patient-6512",
          "display": "Carolyn Gillespie Gallegos"
        },
        "context": {
          "reference": "Encounter/Encounter-2686",
          "display": "Followup_Visit"
        },
        "effectiveDateTime": "2013-03-22T22:00:00-04:00",
        "performer": [
          {
            "reference": "Practitioner/Practitioner-2527",
            "display": "Lee Chris Mejia MD"
          }
        ],
        "valueQuantity": {
          "value": 137.57175327993488,
          "unit": "mmHg"
        }
      },
      "request": {
        "method": "PUT",
        "url": "http://localhost:8080/cqf-ruler/baseDstu3/Observation/Observation-550271"
      }
    },
    {
      "fullUrl": "http://localhost:8080/cqf-ruler/baseDstu3/Observation/Observation-550272",
      "resource": {
        "resourceType": "Observation",
        "id": "Observation-550272",
        "status": "final",
        "code": {
          "coding": [
            {
              "system": "http://loinc.org",
              "code": "8453-3",
              "display": "Diastolic Blood Pressure"
            }
          ]
        },
        "subject": {
          "reference": "Patient/Patient-6512",
          "display": "Carolyn Gillespie Gallegos"
        },
        "context": {
          "reference": "Encounter/Encounter-2686",
          "display": "Followup_Visit"
        },
        "effectiveDateTime": "2013-03-22T22:00:00-04:00",
        "performer": [
          {
            "reference": "Practitioner/Practitioner-2527",
            "display": "Lee Chris Mejia MD"
          }
        ],
        "valueQuantity": {
          "value": 63.72511858268309,
          "unit": "mmHg"
        }
      },
      "request": {
        "method": "PUT",
        "url": "http://localhost:8080/cqf-ruler/baseDstu3/Observation/Observation-550272"
      }
    },
    {
      "fullUrl": "http://localhost:8080/cqf-ruler/baseDstu3/DiagnosticReport/DiagnosticReport-550266",
      "resource": {
        "resourceType": "DiagnosticReport",
        "id": "DiagnosticReport-550266",
        "meta": {
          "profile": [
            "http://hl7.org/fhir/us/hedis/StructureDefinition/hedis-diagnosticreport"
          ]
        },
        "status": "final",
        "category": {
          "coding": [
            {
              "system": "http://hl7.org/fhir/ValueSet/diagnostic-service-sections",
              "code": "LAB",
              "display": "Laboratory"
            }
          ]
        },
        "code": {
          "coding": [
            {
              "system": "http://loinc.org",
              "code": "8716-3",
              "display": "Vital Signs Panel"
            }
          ]
        },
        "subject": {
          "reference": "Patient/Patient-6512",
          "display": "Carolyn Gillespie Gallegos"
        },
        "context": {
          "reference": "Encounter/Encounter-2686",
          "display": "Followup_Visit"
        },
        "effectivePeriod": {
          "start": "2013-03-22T22:00:00-04:00",
          "end": "2013-03-22T22:00:00-04:00"
        },
        "issued": "2013-03-22T22:00:00.000-04:00",
        "result": [
          {
            "reference": "Observation/Observation-550267",
            "display": "Height"
          },
          {
            "reference": "Observation/Observation-550268",
            "display": "Weight"
          },
          {
            "reference": "Observation/Observation-550269",
            "display": "BMI"
          },
          {
            "reference": "Observation/Observation-550270",
            "display": "Temperature"
          },
          {
            "reference": "Observation/Observation-550271",
            "display": "Systolic Blood Pressure"
          },
          {
            "reference": "Observation/Observation-550272",
            "display": "Diastolic Blood Pressure"
          }
        ]
      },
      "request": {
        "method": "PUT",
        "url": "http://localhost:8080/cqf-ruler/baseDstu3/DiagnosticReport/DiagnosticReport-550266"
      }
    }
  ]
}