{
  "resourceType": "Bundle",
  "id": "Domingo-Madera-Gonzales-1135-Encounter-4678",
  "type": "transaction",
  "entry": [
    {
      "fullUrl": "http://localhost:8080/cqf-ruler/baseDstu3/Encounter/Encounter-4678",
      "resource": {
        "resourceType": "Encounter",
        "id": "Encounter-4678",
        "meta": {
          "profile": [
            "http://hl7.org/fhir/us/hedis/StructureDefinition/hedis-encounter"
          ]
        },
        "status": "finished",
        "class": {
          "system": "http://hl7.org/fhir/encounter-class",
          "code": "outpatient",
          "display": "Outpatient"
        },
        "type": [
          {
            "coding": [
              {
                "system": "http://www.ama-assn.org/go/cpt",
                "code": "99395",
                "display": "PREV VISIT EST AGE 18-39"
              }
            ]
          }
        ],
        "subject": {
          "reference": "Patient/Patient-1135",
          "display": "Domingo Madera Gonzales"
        },
        "participant": [
          {
            "period": {
              "start": "2017-12-29T00:00:00-05:00",
              "end": "2017-12-29T00:00:00-05:00"
            },
            "individual": {
              "reference": "Practitioner/Practitioner-2531",
              "display": "Tracy Hampton Boone MD"
            }
          }
        ],
        "period": {
          "start": "2017-12-29T00:00:00-05:00",
          "end": "2017-12-29T00:00:00-05:00"
        },
        "reason": [
          {
            "coding": [
              {
                "system": "http://snomed.info/sct",
                "code": "310496002",
                "display": "Moderate depression (disorder)"
              }
            ]
          }
        ],
        "location": [
          {
            "location": {
              "reference": "Location/Location-1104",
              "display": "Bay Area Family Practice"
            }
          }
        ],
        "serviceProvider": {
          "reference": "Organization/Organization-1104",
          "display": "Bay Area Family Practice"
        }
      },
      "request": {
        "method": "PUT",
        "url": "http://localhost:8080/cqf-ruler/baseDstu3/Encounter/Encounter-4678"
      }
    },
    {
      "fullUrl": "http://localhost:8080/cqf-ruler/baseDstu3/Procedure/Procedure-702095",
      "resource": {
        "resourceType": "Procedure",
        "id": "Procedure-702095",
        "meta": {
          "profile": [
            "http://hl7.org/fhir/us/hedis/StructureDefinition/hedis-procedure"
          ]
        },
        "status": "completed",
        "code": {
          "coding": [
            {
              "system": "http://test",
              "code": "2.16.840.1.113883.3.67.1.101.11.723",
              "display": "2.16.840.1.113883.3.67.1.101.11.723"
            }
          ]
        },
        "subject": {
          "reference": "Patient/Patient-1135",
          "display": "Domingo Madera Gonzales"
        },
        "context": {
          "reference": "Encounter/Encounter-4678",
          "display": "DRR_Encounter"
        },
        "performedPeriod": {
          "start": "2017-12-29T00:00:00-05:00",
          "end": "2017-12-29T00:00:00-05:00"
        },
        "performer": [
          {
            "actor": {
              "reference": "Practitioner/Practitioner-2531",
              "display": "Tracy Hampton Boone MD"
            }
          }
        ],
        "location": {
          "reference": "Location/Location-1104",
          "display": "Bay Area Family Practice"
        }
      },
      "request": {
        "method": "PUT",
        "url": "http://localhost:8080/cqf-ruler/baseDstu3/Procedure/Procedure-702095"
      }
    },
    {
      "fullUrl": "http://localhost:8080/cqf-ruler/baseDstu3/Observation/Observation-702096",
      "resource": {
        "resourceType": "Observation",
        "id": "Observation-702096",
        "meta": {
          "profile": [
            "http://hl7.org/fhir/us/hedis/StructureDefinition/hedis-observation"
          ]
        },
        "status": "final",
        "code": {
          "coding": [
            {
              "system": "http://cqframework.info/codesystem/placeholder",
              "code": "00009",
              "display": "PHQ-9 Modified Score"
            }
          ]
        },
        "subject": {
          "reference": "Patient/Patient-1135",
          "display": "Domingo Madera Gonzales"
        },
        "context": {
          "reference": "Encounter/Encounter-4678",
          "display": "DRR_Encounter"
        },
        "effectiveDateTime": "2017-12-29T00:00:00-05:00",
        "performer": [
          {
            "reference": "Practitioner/Practitioner-2531",
            "display": "Tracy Hampton Boone MD"
          }
        ],
        "valueQuantity": {
          "value": 0.0,
          "unit": "score"
        }
      },
      "request": {
        "method": "PUT",
        "url": "http://localhost:8080/cqf-ruler/baseDstu3/Observation/Observation-702096"
      }
    },
    {
      "fullUrl": "http://localhost:8080/cqf-ruler/baseDstu3/DiagnosticReport/DiagnosticReport-702097",
      "resource": {
        "resourceType": "DiagnosticReport",
        "id": "DiagnosticReport-702097",
        "meta": {
          "profile": [
            "http://hl7.org/fhir/us/hedis/StructureDefinition/hedis-diagnosticreport"
          ]
        },
        "status": "final",
        "category": {
          "coding": [
            {
              "system": "http://hl7.org/fhir/ValueSet/diagnostic-service-sections",
              "code": "OTH",
              "display": "Other"
            }
          ]
        },
        "code": {
          "coding": [
            {
              "system": "http://snomed.info/sct",
              "code": "3109008",
              "display": "Secondary dysthymia early onset (disorder)"
            }
          ]
        },
        "subject": {
          "reference": "Patient/Patient-1135",
          "display": "Domingo Madera Gonzales"
        },
        "context": {
          "reference": "Encounter/Encounter-4678",
          "display": "DRR_Encounter"
        },
        "effectivePeriod": {
          "start": "2017-12-29T00:00:00-05:00",
          "end": "2017-12-29T00:00:00-05:00"
        },
        "issued": "2017-12-29T00:00:00.000-05:00"
      },
      "request": {
        "method": "PUT",
        "url": "http://localhost:8080/cqf-ruler/baseDstu3/DiagnosticReport/DiagnosticReport-702097"
      }
    },
    {
      "fullUrl": "http://localhost:8080/cqf-ruler/baseDstu3/Observation/Observation-702100",
      "resource": {
        "resourceType": "Observation",
        "id": "Observation-702100",
        "status": "final",
        "code": {
          "coding": [
            {
              "system": "http://loinc.org",
              "code": "8302-2",
              "display": "Height"
            }
          ]
        },
        "subject": {
          "reference": "Patient/Patient-1135",
          "display": "Domingo Madera Gonzales"
        },
        "context": {
          "reference": "Encounter/Encounter-4678",
          "display": "DRR_Encounter"
        },
        "effectiveDateTime": "2017-12-29T00:00:00-05:00",
        "performer": [
          {
            "reference": "Practitioner/Practitioner-2531",
            "display": "Tracy Hampton Boone MD"
          }
        ],
        "valueQuantity": {
          "value": 178.6,
          "unit": "cm"
        }
      },
      "request": {
        "method": "PUT",
        "url": "http://localhost:8080/cqf-ruler/baseDstu3/Observation/Observation-702100"
      }
    },
    {
      "fullUrl": "http://localhost:8080/cqf-ruler/baseDstu3/Observation/Observation-702101",
      "resource": {
        "resourceType": "Observation",
        "id": "Observation-702101",
        "status": "final",
        "code": {
          "coding": [
            {
              "system": "http://loinc.org",
              "code": "29463-7",
              "display": "Weight"
            }
          ]
        },
        "subject": {
          "reference": "Patient/Patient-1135",
          "display": "Domingo Madera Gonzales"
        },
        "context": {
          "reference": "Encounter/Encounter-4678",
          "display": "DRR_Encounter"
        },
        "effectiveDateTime": "2017-12-29T00:00:00-05:00",
        "performer": [
          {
            "reference": "Practitioner/Practitioner-2531",
            "display": "Tracy Hampton Boone MD"
          }
        ],
        "valueQuantity": {
          "value": 63.752999428238425,
          "unit": "kg"
        }
      },
      "request": {
        "method": "PUT",
        "url": "http://localhost:8080/cqf-ruler/baseDstu3/Observation/Observation-702101"
      }
    },
    {
      "fullUrl": "http://localhost:8080/cqf-ruler/baseDstu3/Observation/Observation-702102",
      "resource": {
        "resourceType": "Observation",
        "id": "Observation-702102",
        "status": "final",
        "code": {
          "coding": [
            {
              "system": "http://loinc.org",
              "code": "39156-5",
              "display": "BMI"
            }
          ]
        },
        "subject": {
          "reference": "Patient/Patient-1135",
          "display": "Domingo Madera Gonzales"
        },
        "context": {
          "reference": "Encounter/Encounter-4678",
          "display": "DRR_Encounter"
        },
        "effectiveDateTime": "2017-12-29T00:00:00-05:00",
        "performer": [
          {
            "reference": "Practitioner/Practitioner-2531",
            "display": "Tracy Hampton Boone MD"
          }
        ],
        "valueQuantity": {
          "value": 19.986544414827286,
          "unit": "kg/m2"
        }
      },
      "request": {
        "method": "PUT",
        "url": "http://localhost:8080/cqf-ruler/baseDstu3/Observation/Observation-702102"
      }
    },
    {
      "fullUrl": "http://localhost:8080/cqf-ruler/baseDstu3/Observation/Observation-702103",
      "resource": {
        "resourceType": "Observation",
        "id": "Observation-702103",
        "status": "final",
        "code": {
          "coding": [
            {
              "system": "http://loinc.org",
              "code": "8310-5",
              "display": "Temperature"
            }
          ]
        },
        "subject": {
          "reference": "Patient/Patient-1135",
          "display": "Domingo Madera Gonzales"
        },
        "context": {
          "reference": "Encounter/Encounter-4678",
          "display": "DRR_Encounter"
        },
        "effectiveDateTime": "2017-12-29T00:00:00-05:00",
        "performer": [
          {
            "reference": "Practitioner/Practitioner-2531",
            "display": "Tracy Hampton Boone MD"
          }
        ],
        "valueQuantity": {
          "value": 37.0,
          "unit": "C"
        }
      },
      "request": {
        "method": "PUT",
        "url": "http://localhost:8080/cqf-ruler/baseDstu3/Observation/Observation-702103"
      }
    },
    {
      "fullUrl": "http://localhost:8080/cqf-ruler/baseDstu3/Observation/Observation-702104",
      "resource": {
        "resourceType": "Observation",
        "id": "Observation-702104",
        "status": "final",
        "code": {
          "coding": [
            {
              "system": "http://loinc.org",
              "code": "8459-0",
              "display": "Systolic Blood Pressure"
            }
          ]
        },
        "subject": {
          "reference": "Patient/Patient-1135",
          "display": "Domingo Madera Gonzales"
        },
        "context": {
          "reference": "Encounter/Encounter-4678",
          "display": "DRR_Encounter"
        },
        "effectiveDateTime": "2017-12-29T00:00:00-05:00",
        "performer": [
          {
            "reference": "Practitioner/Practitioner-2531",
            "display": "Tracy Hampton Boone MD"
          }
        ],
        "valueQuantity": {
          "value": 124.41269654964333,
          "unit": "mmHg"
        }
      },
      "request": {
        "method": "PUT",
        "url": "http://localhost:8080/cqf-ruler/baseDstu3/Observation/Observation-702104"
      }
    },
    {
      "fullUrl": "http://localhost:8080/cqf-ruler/baseDstu3/Observation/Observation-702105",
      "resource": {
        "resourceType": "Observation",
        "id": "Observation-702105",
        "status": "final",
        "code": {
          "coding": [
            {
              "system": "http://loinc.org",
              "code": "8453-3",
              "display": "Diastolic Blood Pressure"
            }
          ]
        },
        "subject": {
          "reference": "Patient/Patient-1135",
          "display": "Domingo Madera Gonzales"
        },
        "context": {
          "reference": "Encounter/Encounter-4678",
          "display": "DRR_Encounter"
        },
        "effectiveDateTime": "2017-12-29T00:00:00-05:00",
        "performer": [
          {
            "reference": "Practitioner/Practitioner-2531",
            "display": "Tracy Hampton Boone MD"
          }
        ],
        "valueQuantity": {
          "value": 95.74048043401432,
          "unit": "mmHg"
        }
      },
      "request": {
        "method": "PUT",
        "url": "http://localhost:8080/cqf-ruler/baseDstu3/Observation/Observation-702105"
      }
    },
    {
      "fullUrl": "http://localhost:8080/cqf-ruler/baseDstu3/DiagnosticReport/DiagnosticReport-702099",
      "resource": {
        "resourceType": "DiagnosticReport",
        "id": "DiagnosticReport-702099",
        "meta": {
          "profile": [
            "http://hl7.org/fhir/us/hedis/StructureDefinition/hedis-diagnosticreport"
          ]
        },
        "status": "final",
        "category": {
          "coding": [
            {
              "system": "http://hl7.org/fhir/ValueSet/diagnostic-service-sections",
              "code": "LAB",
              "display": "Laboratory"
            }
          ]
        },
        "code": {
          "coding": [
            {
              "system": "http://loinc.org",
              "code": "8716-3",
              "display": "Vital Signs Panel"
            }
          ]
        },
        "subject": {
          "reference": "Patient/Patient-1135",
          "display": "Domingo Madera Gonzales"
        },
        "context": {
          "reference": "Encounter/Encounter-4678",
          "display": "DRR_Encounter"
        },
        "effectivePeriod": {
          "start": "2017-12-29T00:00:00-05:00",
          "end": "2017-12-29T00:00:00-05:00"
        },
        "issued": "2017-12-29T00:00:00.000-05:00",
        "result": [
          {
            "reference": "Observation/Observation-702100",
            "display": "Height"
          },
          {
            "reference": "Observation/Observation-702101",
            "display": "Weight"
          },
          {
            "reference": "Observation/Observation-702102",
            "display": "BMI"
          },
          {
            "reference": "Observation/Observation-702103",
            "display": "Temperature"
          },
          {
            "reference": "Observation/Observation-702104",
            "display": "Systolic Blood Pressure"
          },
          {
            "reference": "Observation/Observation-702105",
            "display": "Diastolic Blood Pressure"
          }
        ]
      },
      "request": {
        "method": "PUT",
        "url": "http://localhost:8080/cqf-ruler/baseDstu3/DiagnosticReport/DiagnosticReport-702099"
      }
    }
  ]
}