{
  "resourceType": "Bundle",
  "id": "Domingo-Madera-Gonzales-1135-Encounter-1628",
  "type": "transaction",
  "entry": [
    {
      "fullUrl": "http://localhost:8080/cqf-ruler/baseDstu3/Encounter/Encounter-1628",
      "resource": {
        "resourceType": "Encounter",
        "id": "Encounter-1628",
        "status": "finished",
        "class": {
          "system": "http://hl7.org/fhir/encounter-class",
          "code": "outpatient",
          "display": "Inpatient"
        },
        "subject": {
          "reference": "Patient/Patient-1135",
          "display": "Domingo Madera Gonzales"
        },
        "participant": [
          {
            "period": {
              "start": "2005-07-15T00:00:00-04:00",
              "end": "2005-07-15T00:00:00-04:00"
            },
            "individual": {
              "reference": "Practitioner/Practitioner-2531",
              "display": "Tracy Hampton Boone MD"
            }
          }
        ],
        "period": {
          "start": "2005-07-15T00:00:00-04:00",
          "end": "2005-07-15T00:00:00-04:00"
        },
        "location": [
          {
            "location": {
              "reference": "Location/Location-1104",
              "display": "Bay Area Family Practice"
            }
          }
        ],
        "serviceProvider": {
          "reference": "Organization/Organization-1104",
          "display": "Bay Area Family Practice"
        }
      },
      "request": {
        "method": "PUT",
        "url": "http://localhost:8080/cqf-ruler/baseDstu3/Encounter/Encounter-1628"
      }
    },
    {
      "fullUrl": "http://localhost:8080/cqf-ruler/baseDstu3/Immunization/Immunization-351458",
      "resource": {
        "resourceType": "Immunization",
        "id": "Immunization-351458",
        "status": "completed",
        "notGiven": false,
        "vaccineCode": {
          "coding": [
            {
              "system": "http://hl7.org/fhir/sid/cvx",
              "code": "140",
              "display": "Influenza, seasonal, injectable, preservative free"
            }
          ]
        },
        "patient": {
          "reference": "Patient/Patient-1135",
          "display": "Domingo Madera Gonzales"
        },
        "date": "2005-07-15T00:00:00-04:00",
        "primarySource": true,
        "location": {
          "reference": "Location/Location-1104",
          "display": "Bay Area Family Practice"
        },
        "practitioner": [
          {
            "actor": {
              "reference": "Practitioner/Practitioner-2531",
              "display": "Tracy Hampton Boone MD"
            }
          }
        ]
      },
      "request": {
        "method": "PUT",
        "url": "http://localhost:8080/cqf-ruler/baseDstu3/Immunization/Immunization-351458"
      }
    },
    {
      "fullUrl": "http://localhost:8080/cqf-ruler/baseDstu3/Immunization/Immunization-351459",
      "resource": {
        "resourceType": "Immunization",
        "id": "Immunization-351459",
        "status": "completed",
        "notGiven": false,
        "vaccineCode": {
          "coding": [
            {
              "system": "http://hl7.org/fhir/sid/cvx",
              "code": "83",
              "display": "Hep A, ped/adol, 2 dose"
            }
          ]
        },
        "patient": {
          "reference": "Patient/Patient-1135",
          "display": "Domingo Madera Gonzales"
        },
        "date": "2005-07-15T00:00:00-04:00",
        "primarySource": true,
        "location": {
          "reference": "Location/Location-1104",
          "display": "Bay Area Family Practice"
        },
        "practitioner": [
          {
            "actor": {
              "reference": "Practitioner/Practitioner-2531",
              "display": "Tracy Hampton Boone MD"
            }
          }
        ]
      },
      "request": {
        "method": "PUT",
        "url": "http://localhost:8080/cqf-ruler/baseDstu3/Immunization/Immunization-351459"
      }
    },
    {
      "fullUrl": "http://localhost:8080/cqf-ruler/baseDstu3/Observation/Observation-363867",
      "resource": {
        "resourceType": "Observation",
        "id": "Observation-363867",
        "status": "final",
        "code": {
          "coding": [
            {
              "system": "http://loinc.org",
              "code": "8480-6",
              "display": "Systolic blood pressure"
            }
          ]
        },
        "subject": {
          "reference": "Patient/Patient-1135",
          "display": "Domingo Madera Gonzales"
        },
        "context": {
          "reference": "Encounter/Encounter-1628",
          "display": "Wellness Visit"
        },
        "effectivePeriod": {
          "start": "2005-07-15T00:00:00-04:00",
          "end": "2005-07-15T00:00:00-04:00"
        },
        "performer": [
          {
            "reference": "Practitioner/Practitioner-2531",
            "display": "Tracy Hampton Boone MD"
          }
        ],
        "valueQuantity": {
          "value": 125.52284706479266,
          "unit": "mmHg"
        }
      },
      "request": {
        "method": "PUT",
        "url": "http://localhost:8080/cqf-ruler/baseDstu3/Observation/Observation-363867"
      }
    },
    {
      "fullUrl": "http://localhost:8080/cqf-ruler/baseDstu3/Observation/Observation-363868",
      "resource": {
        "resourceType": "Observation",
        "id": "Observation-363868",
        "status": "final",
        "code": {
          "coding": [
            {
              "system": "http://loinc.org",
              "code": "8462-4",
              "display": "Diastolic blood pressure"
            }
          ]
        },
        "subject": {
          "reference": "Patient/Patient-1135",
          "display": "Domingo Madera Gonzales"
        },
        "context": {
          "reference": "Encounter/Encounter-1628",
          "display": "Wellness Visit"
        },
        "effectivePeriod": {
          "start": "2005-07-15T00:00:00-04:00",
          "end": "2005-07-15T00:00:00-04:00"
        },
        "performer": [
          {
            "reference": "Practitioner/Practitioner-2531",
            "display": "Tracy Hampton Boone MD"
          }
        ],
        "valueQuantity": {
          "value": 82.64341238396837,
          "unit": "mmHg"
        }
      },
      "request": {
        "method": "PUT",
        "url": "http://localhost:8080/cqf-ruler/baseDstu3/Observation/Observation-363868"
      }
    },
    {
      "fullUrl": "http://localhost:8080/cqf-ruler/baseDstu3/Observation/Observation-363869",
      "resource": {
        "resourceType": "Observation",
        "id": "Observation-363869",
        "status": "final",
        "code": {
          "coding": [
            {
              "system": "http://loinc.org",
              "code": "8302-2",
              "display": "Body Height"
            }
          ]
        },
        "subject": {
          "reference": "Patient/Patient-1135",
          "display": "Domingo Madera Gonzales"
        },
        "context": {
          "reference": "Encounter/Encounter-1628",
          "display": "Wellness Visit"
        },
        "effectivePeriod": {
          "start": "2005-07-15T00:00:00-04:00",
          "end": "2005-07-15T00:00:00-04:00"
        },
        "performer": [
          {
            "reference": "Practitioner/Practitioner-2531",
            "display": "Tracy Hampton Boone MD"
          }
        ],
        "valueQuantity": {
          "value": 102.4,
          "unit": "cm"
        }
      },
      "request": {
        "method": "PUT",
        "url": "http://localhost:8080/cqf-ruler/baseDstu3/Observation/Observation-363869"
      }
    },
    {
      "fullUrl": "http://localhost:8080/cqf-ruler/baseDstu3/Observation/Observation-363870",
      "resource": {
        "resourceType": "Observation",
        "id": "Observation-363870",
        "status": "final",
        "code": {
          "coding": [
            {
              "system": "http://loinc.org",
              "code": "29463-7",
              "display": "Body Weight"
            }
          ]
        },
        "subject": {
          "reference": "Patient/Patient-1135",
          "display": "Domingo Madera Gonzales"
        },
        "context": {
          "reference": "Encounter/Encounter-1628",
          "display": "Wellness Visit"
        },
        "effectivePeriod": {
          "start": "2005-07-15T00:00:00-04:00",
          "end": "2005-07-15T00:00:00-04:00"
        },
        "performer": [
          {
            "reference": "Practitioner/Practitioner-2531",
            "display": "Tracy Hampton Boone MD"
          }
        ],
        "valueQuantity": {
          "value": 16.8,
          "unit": "kg"
        }
      },
      "request": {
        "method": "PUT",
        "url": "http://localhost:8080/cqf-ruler/baseDstu3/Observation/Observation-363870"
      }
    },
    {
      "fullUrl": "http://localhost:8080/cqf-ruler/baseDstu3/Observation/Observation-363871",
      "resource": {
        "resourceType": "Observation",
        "id": "Observation-363871",
        "status": "final",
        "code": {
          "coding": [
            {
              "system": "http://loinc.org",
              "code": "39156-5",
              "display": "Body Mass Index"
            }
          ]
        },
        "subject": {
          "reference": "Patient/Patient-1135",
          "display": "Domingo Madera Gonzales"
        },
        "context": {
          "reference": "Encounter/Encounter-1628",
          "display": "Wellness Visit"
        },
        "effectivePeriod": {
          "start": "2005-07-15T00:00:00-04:00",
          "end": "2005-07-15T00:00:00-04:00"
        },
        "performer": [
          {
            "reference": "Practitioner/Practitioner-2531",
            "display": "Tracy Hampton Boone MD"
          }
        ],
        "valueQuantity": {
          "value": 16.021728515625,
          "unit": "kg/m2"
        }
      },
      "request": {
        "method": "PUT",
        "url": "http://localhost:8080/cqf-ruler/baseDstu3/Observation/Observation-363871"
      }
    },
    {
      "fullUrl": "http://localhost:8080/cqf-ruler/baseDstu3/Observation/Observation-363874",
      "resource": {
        "resourceType": "Observation",
        "id": "Observation-363874",
        "status": "final",
        "category": [
          {
            "coding": [
              {
                "system": "http://hl7.org/fhir/observation-category",
                "code": "vital-signs",
                "display": "vital-signs"
              }
            ]
          }
        ],
        "code": {
          "coding": [
            {
              "system": "http://loinc.org",
              "code": "55284-4",
              "display": "Blood Pressure"
            }
          ]
        },
        "subject": {
          "reference": "Patient/Patient-1135",
          "display": "Domingo Madera Gonzales"
        },
        "context": {
          "reference": "Encounter/Encounter-1628",
          "display": "Wellness Visit"
        },
        "effectivePeriod": {
          "start": "2005-07-15T00:00:00-04:00",
          "end": "2005-07-15T00:00:00-04:00"
        },
        "valueQuantity": {
          "value": 82.64341238396837,
          "unit": "mmHg"
        },
        "component": [
          {
            "code": {
              "coding": [
                {
                  "system": "http://loinc.org",
                  "code": "8480-6",
                  "display": "Systolic Blood Pressure"
                }
              ]
            }
          },
          {
            "code": {
              "coding": [
                {
                  "system": "http://loinc.org",
                  "code": "8462-4",
                  "display": "Diastolic Blood Pressure"
                }
              ]
            }
          }
        ]
      },
      "request": {
        "method": "PUT",
        "url": "http://localhost:8080/cqf-ruler/baseDstu3/Observation/Observation-363874"
      }
    },
    {
      "fullUrl": "http://localhost:8080/cqf-ruler/baseDstu3/Observation/Observation-363876",
      "resource": {
        "resourceType": "Observation",
        "id": "Observation-363876",
        "status": "final",
        "code": {
          "coding": [
            {
              "system": "http://loinc.org",
              "code": "8302-2",
              "display": "Height"
            }
          ]
        },
        "subject": {
          "reference": "Patient/Patient-1135",
          "display": "Domingo Madera Gonzales"
        },
        "context": {
          "reference": "Encounter/Encounter-1628",
          "display": "Wellness Visit"
        },
        "effectiveDateTime": "2005-07-15T00:00:00-04:00",
        "performer": [
          {
            "reference": "Practitioner/Practitioner-2531",
            "display": "Tracy Hampton Boone MD"
          }
        ],
        "valueQuantity": {
          "value": 102.4,
          "unit": "cm"
        }
      },
      "request": {
        "method": "PUT",
        "url": "http://localhost:8080/cqf-ruler/baseDstu3/Observation/Observation-363876"
      }
    },
    {
      "fullUrl": "http://localhost:8080/cqf-ruler/baseDstu3/Observation/Observation-363877",
      "resource": {
        "resourceType": "Observation",
        "id": "Observation-363877",
        "status": "final",
        "code": {
          "coding": [
            {
              "system": "http://loinc.org",
              "code": "29463-7",
              "display": "Weight"
            }
          ]
        },
        "subject": {
          "reference": "Patient/Patient-1135",
          "display": "Domingo Madera Gonzales"
        },
        "context": {
          "reference": "Encounter/Encounter-1628",
          "display": "Wellness Visit"
        },
        "effectiveDateTime": "2005-07-15T00:00:00-04:00",
        "performer": [
          {
            "reference": "Practitioner/Practitioner-2531",
            "display": "Tracy Hampton Boone MD"
          }
        ],
        "valueQuantity": {
          "value": 16.8,
          "unit": "kg"
        }
      },
      "request": {
        "method": "PUT",
        "url": "http://localhost:8080/cqf-ruler/baseDstu3/Observation/Observation-363877"
      }
    },
    {
      "fullUrl": "http://localhost:8080/cqf-ruler/baseDstu3/Observation/Observation-363878",
      "resource": {
        "resourceType": "Observation",
        "id": "Observation-363878",
        "status": "final",
        "code": {
          "coding": [
            {
              "system": "http://loinc.org",
              "code": "39156-5",
              "display": "BMI"
            }
          ]
        },
        "subject": {
          "reference": "Patient/Patient-1135",
          "display": "Domingo Madera Gonzales"
        },
        "context": {
          "reference": "Encounter/Encounter-1628",
          "display": "Wellness Visit"
        },
        "effectiveDateTime": "2005-07-15T00:00:00-04:00",
        "performer": [
          {
            "reference": "Practitioner/Practitioner-2531",
            "display": "Tracy Hampton Boone MD"
          }
        ],
        "valueQuantity": {
          "value": 16.021728515625,
          "unit": "kg/m2"
        }
      },
      "request": {
        "method": "PUT",
        "url": "http://localhost:8080/cqf-ruler/baseDstu3/Observation/Observation-363878"
      }
    },
    {
      "fullUrl": "http://localhost:8080/cqf-ruler/baseDstu3/Observation/Observation-363879",
      "resource": {
        "resourceType": "Observation",
        "id": "Observation-363879",
        "status": "final",
        "code": {
          "coding": [
            {
              "system": "http://loinc.org",
              "code": "8310-5",
              "display": "Temperature"
            }
          ]
        },
        "subject": {
          "reference": "Patient/Patient-1135",
          "display": "Domingo Madera Gonzales"
        },
        "context": {
          "reference": "Encounter/Encounter-1628",
          "display": "Wellness Visit"
        },
        "effectiveDateTime": "2005-07-15T00:00:00-04:00",
        "performer": [
          {
            "reference": "Practitioner/Practitioner-2531",
            "display": "Tracy Hampton Boone MD"
          }
        ],
        "valueQuantity": {
          "value": 37.0,
          "unit": "C"
        }
      },
      "request": {
        "method": "PUT",
        "url": "http://localhost:8080/cqf-ruler/baseDstu3/Observation/Observation-363879"
      }
    },
    {
      "fullUrl": "http://localhost:8080/cqf-ruler/baseDstu3/Observation/Observation-363880",
      "resource": {
        "resourceType": "Observation",
        "id": "Observation-363880",
        "status": "final",
        "code": {
          "coding": [
            {
              "system": "http://loinc.org",
              "code": "8459-0",
              "display": "Systolic Blood Pressure"
            }
          ]
        },
        "subject": {
          "reference": "Patient/Patient-1135",
          "display": "Domingo Madera Gonzales"
        },
        "context": {
          "reference": "Encounter/Encounter-1628",
          "display": "Wellness Visit"
        },
        "effectiveDateTime": "2005-07-15T00:00:00-04:00",
        "performer": [
          {
            "reference": "Practitioner/Practitioner-2531",
            "display": "Tracy Hampton Boone MD"
          }
        ],
        "valueQuantity": {
          "value": 125.52284706479266,
          "unit": "mmHg"
        }
      },
      "request": {
        "method": "PUT",
        "url": "http://localhost:8080/cqf-ruler/baseDstu3/Observation/Observation-363880"
      }
    },
    {
      "fullUrl": "http://localhost:8080/cqf-ruler/baseDstu3/Observation/Observation-363881",
      "resource": {
        "resourceType": "Observation",
        "id": "Observation-363881",
        "status": "final",
        "code": {
          "coding": [
            {
              "system": "http://loinc.org",
              "code": "8453-3",
              "display": "Diastolic Blood Pressure"
            }
          ]
        },
        "subject": {
          "reference": "Patient/Patient-1135",
          "display": "Domingo Madera Gonzales"
        },
        "context": {
          "reference": "Encounter/Encounter-1628",
          "display": "Wellness Visit"
        },
        "effectiveDateTime": "2005-07-15T00:00:00-04:00",
        "performer": [
          {
            "reference": "Practitioner/Practitioner-2531",
            "display": "Tracy Hampton Boone MD"
          }
        ],
        "valueQuantity": {
          "value": 82.64341238396837,
          "unit": "mmHg"
        }
      },
      "request": {
        "method": "PUT",
        "url": "http://localhost:8080/cqf-ruler/baseDstu3/Observation/Observation-363881"
      }
    },
    {
      "fullUrl": "http://localhost:8080/cqf-ruler/baseDstu3/DiagnosticReport/DiagnosticReport-363875",
      "resource": {
        "resourceType": "DiagnosticReport",
        "id": "DiagnosticReport-363875",
        "status": "final",
        "code": {
          "coding": [
            {
              "system": "http://loinc.org",
              "code": "8716-3",
              "display": "Vital Signs Panel"
            }
          ]
        },
        "subject": {
          "reference": "Patient/Patient-1135",
          "display": "Domingo Madera Gonzales"
        },
        "context": {
          "reference": "Encounter/Encounter-1628",
          "display": "Wellness Visit"
        },
        "effectivePeriod": {
          "start": "2005-07-15T00:00:00-04:00",
          "end": "2005-07-15T00:00:00-04:00"
        },
        "issued": "2005-07-15T00:00:00.000-04:00",
        "result": [
          {
            "reference": "Observation/Observation-363876",
            "display": "Height"
          },
          {
            "reference": "Observation/Observation-363877",
            "display": "Weight"
          },
          {
            "reference": "Observation/Observation-363878",
            "display": "BMI"
          },
          {
            "reference": "Observation/Observation-363879",
            "display": "Temperature"
          },
          {
            "reference": "Observation/Observation-363880",
            "display": "Systolic Blood Pressure"
          },
          {
            "reference": "Observation/Observation-363881",
            "display": "Diastolic Blood Pressure"
          }
        ]
      },
      "request": {
        "method": "PUT",
        "url": "http://localhost:8080/cqf-ruler/baseDstu3/DiagnosticReport/DiagnosticReport-363875"
      }
    }
  ]
}