{
  "resourceType": "Bundle",
  "id": "Martha-Bertha-Wagner-6539-Encounter-2690",
  "type": "transaction",
  "entry": [
    {
      "fullUrl": "http://localhost:8080/cqf-ruler/baseDstu3/Encounter/Encounter-2690",
      "resource": {
        "resourceType": "Encounter",
        "id": "Encounter-2690",
        "status": "finished",
        "class": {
          "system": "http://hl7.org/fhir/encounter-class",
          "code": "outpatient",
          "display": "Inpatient"
        },
        "subject": {
          "reference": "Patient/Patient-6539",
          "display": "Martha Bertha Wagner"
        },
        "participant": [
          {
            "period": {
              "start": "2015-03-06T00:00:00-05:00",
              "end": "2015-03-06T00:00:00-05:00"
            },
            "individual": {
              "reference": "Practitioner/Practitioner-2516",
              "display": "Agnes Tammy Larson MD"
            }
          }
        ],
        "period": {
          "start": "2015-03-06T00:00:00-05:00",
          "end": "2015-03-06T00:00:00-05:00"
        },
        "location": [
          {
            "location": {
              "reference": "Location/Location-1101",
              "display": "McKinley Health Center"
            }
          }
        ],
        "serviceProvider": {
          "reference": "Organization/Organization-1101",
          "display": "McKinley Health Center"
        }
      },
      "request": {
        "method": "PUT",
        "url": "http://localhost:8080/cqf-ruler/baseDstu3/Encounter/Encounter-2690"
      }
    },
    {
      "fullUrl": "http://localhost:8080/cqf-ruler/baseDstu3/Immunization/Immunization-573156",
      "resource": {
        "resourceType": "Immunization",
        "id": "Immunization-573156",
        "status": "completed",
        "notGiven": false,
        "vaccineCode": {
          "coding": [
            {
              "system": "http://hl7.org/fhir/sid/cvx",
              "code": "140",
              "display": "Influenza, seasonal, injectable, preservative free"
            }
          ]
        },
        "patient": {
          "reference": "Patient/Patient-6539",
          "display": "Martha Bertha Wagner"
        },
        "date": "2015-03-06T00:00:00-05:00",
        "primarySource": true,
        "location": {
          "reference": "Location/Location-1101",
          "display": "McKinley Health Center"
        },
        "practitioner": [
          {
            "actor": {
              "reference": "Practitioner/Practitioner-2516",
              "display": "Agnes Tammy Larson MD"
            }
          }
        ]
      },
      "request": {
        "method": "PUT",
        "url": "http://localhost:8080/cqf-ruler/baseDstu3/Immunization/Immunization-573156"
      }
    },
    {
      "fullUrl": "http://localhost:8080/cqf-ruler/baseDstu3/Immunization/Immunization-573157",
      "resource": {
        "resourceType": "Immunization",
        "id": "Immunization-573157",
        "status": "completed",
        "notGiven": false,
        "vaccineCode": {
          "coding": [
            {
              "system": "http://hl7.org/fhir/sid/cvx",
              "code": "62",
              "display": "HPV, quadrivalent"
            }
          ]
        },
        "patient": {
          "reference": "Patient/Patient-6539",
          "display": "Martha Bertha Wagner"
        },
        "date": "2015-03-06T00:00:00-05:00",
        "primarySource": true,
        "location": {
          "reference": "Location/Location-1101",
          "display": "McKinley Health Center"
        },
        "practitioner": [
          {
            "actor": {
              "reference": "Practitioner/Practitioner-2516",
              "display": "Agnes Tammy Larson MD"
            }
          }
        ]
      },
      "request": {
        "method": "PUT",
        "url": "http://localhost:8080/cqf-ruler/baseDstu3/Immunization/Immunization-573157"
      }
    },
    {
      "fullUrl": "http://localhost:8080/cqf-ruler/baseDstu3/Observation/Observation-601423",
      "resource": {
        "resourceType": "Observation",
        "id": "Observation-601423",
        "status": "final",
        "code": {
          "coding": [
            {
              "system": "http://loinc.org",
              "code": "8480-6",
              "display": "Systolic blood pressure"
            }
          ]
        },
        "subject": {
          "reference": "Patient/Patient-6539",
          "display": "Martha Bertha Wagner"
        },
        "context": {
          "reference": "Encounter/Encounter-2690",
          "display": "Wellness Visit"
        },
        "effectivePeriod": {
          "start": "2015-03-06T00:00:00-05:00",
          "end": "2015-03-06T00:00:00-05:00"
        },
        "performer": [
          {
            "reference": "Practitioner/Practitioner-2516",
            "display": "Agnes Tammy Larson MD"
          }
        ],
        "valueQuantity": {
          "value": 129.3437618219804,
          "unit": "mmHg"
        }
      },
      "request": {
        "method": "PUT",
        "url": "http://localhost:8080/cqf-ruler/baseDstu3/Observation/Observation-601423"
      }
    },
    {
      "fullUrl": "http://localhost:8080/cqf-ruler/baseDstu3/Observation/Observation-601424",
      "resource": {
        "resourceType": "Observation",
        "id": "Observation-601424",
        "status": "final",
        "code": {
          "coding": [
            {
              "system": "http://loinc.org",
              "code": "8462-4",
              "display": "Diastolic blood pressure"
            }
          ]
        },
        "subject": {
          "reference": "Patient/Patient-6539",
          "display": "Martha Bertha Wagner"
        },
        "context": {
          "reference": "Encounter/Encounter-2690",
          "display": "Wellness Visit"
        },
        "effectivePeriod": {
          "start": "2015-03-06T00:00:00-05:00",
          "end": "2015-03-06T00:00:00-05:00"
        },
        "performer": [
          {
            "reference": "Practitioner/Practitioner-2516",
            "display": "Agnes Tammy Larson MD"
          }
        ],
        "valueQuantity": {
          "value": 86.67134423613925,
          "unit": "mmHg"
        }
      },
      "request": {
        "method": "PUT",
        "url": "http://localhost:8080/cqf-ruler/baseDstu3/Observation/Observation-601424"
      }
    },
    {
      "fullUrl": "http://localhost:8080/cqf-ruler/baseDstu3/Observation/Observation-601425",
      "resource": {
        "resourceType": "Observation",
        "id": "Observation-601425",
        "status": "final",
        "code": {
          "coding": [
            {
              "system": "http://loinc.org",
              "code": "8302-2",
              "display": "Body Height"
            }
          ]
        },
        "subject": {
          "reference": "Patient/Patient-6539",
          "display": "Martha Bertha Wagner"
        },
        "context": {
          "reference": "Encounter/Encounter-2690",
          "display": "Wellness Visit"
        },
        "effectivePeriod": {
          "start": "2015-03-06T00:00:00-05:00",
          "end": "2015-03-06T00:00:00-05:00"
        },
        "performer": [
          {
            "reference": "Practitioner/Practitioner-2516",
            "display": "Agnes Tammy Larson MD"
          }
        ],
        "valueQuantity": {
          "value": 153.8,
          "unit": "cm"
        }
      },
      "request": {
        "method": "PUT",
        "url": "http://localhost:8080/cqf-ruler/baseDstu3/Observation/Observation-601425"
      }
    },
    {
      "fullUrl": "http://localhost:8080/cqf-ruler/baseDstu3/Observation/Observation-601426",
      "resource": {
        "resourceType": "Observation",
        "id": "Observation-601426",
        "status": "final",
        "code": {
          "coding": [
            {
              "system": "http://loinc.org",
              "code": "29463-7",
              "display": "Body Weight"
            }
          ]
        },
        "subject": {
          "reference": "Patient/Patient-6539",
          "display": "Martha Bertha Wagner"
        },
        "context": {
          "reference": "Encounter/Encounter-2690",
          "display": "Wellness Visit"
        },
        "effectivePeriod": {
          "start": "2015-03-06T00:00:00-05:00",
          "end": "2015-03-06T00:00:00-05:00"
        },
        "performer": [
          {
            "reference": "Practitioner/Practitioner-2516",
            "display": "Agnes Tammy Larson MD"
          }
        ],
        "valueQuantity": {
          "value": 25.469828065873184,
          "unit": "kg"
        }
      },
      "request": {
        "method": "PUT",
        "url": "http://localhost:8080/cqf-ruler/baseDstu3/Observation/Observation-601426"
      }
    },
    {
      "fullUrl": "http://localhost:8080/cqf-ruler/baseDstu3/Observation/Observation-601427",
      "resource": {
        "resourceType": "Observation",
        "id": "Observation-601427",
        "status": "final",
        "code": {
          "coding": [
            {
              "system": "http://loinc.org",
              "code": "39156-5",
              "display": "Body Mass Index"
            }
          ]
        },
        "subject": {
          "reference": "Patient/Patient-6539",
          "display": "Martha Bertha Wagner"
        },
        "context": {
          "reference": "Encounter/Encounter-2690",
          "display": "Wellness Visit"
        },
        "effectivePeriod": {
          "start": "2015-03-06T00:00:00-05:00",
          "end": "2015-03-06T00:00:00-05:00"
        },
        "performer": [
          {
            "reference": "Practitioner/Practitioner-2516",
            "display": "Agnes Tammy Larson MD"
          }
        ],
        "valueQuantity": {
          "value": 10.76746186587938,
          "unit": "kg/m2"
        }
      },
      "request": {
        "method": "PUT",
        "url": "http://localhost:8080/cqf-ruler/baseDstu3/Observation/Observation-601427"
      }
    },
    {
      "fullUrl": "http://localhost:8080/cqf-ruler/baseDstu3/Observation/Observation-601430",
      "resource": {
        "resourceType": "Observation",
        "id": "Observation-601430",
        "status": "final",
        "category": [
          {
            "coding": [
              {
                "system": "http://hl7.org/fhir/observation-category",
                "code": "vital-signs",
                "display": "vital-signs"
              }
            ]
          }
        ],
        "code": {
          "coding": [
            {
              "system": "http://loinc.org",
              "code": "55284-4",
              "display": "Blood Pressure"
            }
          ]
        },
        "subject": {
          "reference": "Patient/Patient-6539",
          "display": "Martha Bertha Wagner"
        },
        "context": {
          "reference": "Encounter/Encounter-2690",
          "display": "Wellness Visit"
        },
        "effectivePeriod": {
          "start": "2015-03-06T00:00:00-05:00",
          "end": "2015-03-06T00:00:00-05:00"
        },
        "valueQuantity": {
          "value": 86.67134423613925,
          "unit": "mmHg"
        },
        "component": [
          {
            "code": {
              "coding": [
                {
                  "system": "http://loinc.org",
                  "code": "8480-6",
                  "display": "Systolic Blood Pressure"
                }
              ]
            }
          },
          {
            "code": {
              "coding": [
                {
                  "system": "http://loinc.org",
                  "code": "8462-4",
                  "display": "Diastolic Blood Pressure"
                }
              ]
            }
          }
        ]
      },
      "request": {
        "method": "PUT",
        "url": "http://localhost:8080/cqf-ruler/baseDstu3/Observation/Observation-601430"
      }
    },
    {
      "fullUrl": "http://localhost:8080/cqf-ruler/baseDstu3/Observation/Observation-601432",
      "resource": {
        "resourceType": "Observation",
        "id": "Observation-601432",
        "status": "final",
        "code": {
          "coding": [
            {
              "system": "http://loinc.org",
              "code": "8302-2",
              "display": "Height"
            }
          ]
        },
        "subject": {
          "reference": "Patient/Patient-6539",
          "display": "Martha Bertha Wagner"
        },
        "context": {
          "reference": "Encounter/Encounter-2690",
          "display": "Wellness Visit"
        },
        "effectiveDateTime": "2015-03-06T00:00:00-05:00",
        "performer": [
          {
            "reference": "Practitioner/Practitioner-2516",
            "display": "Agnes Tammy Larson MD"
          }
        ],
        "valueQuantity": {
          "value": 153.8,
          "unit": "cm"
        }
      },
      "request": {
        "method": "PUT",
        "url": "http://localhost:8080/cqf-ruler/baseDstu3/Observation/Observation-601432"
      }
    },
    {
      "fullUrl": "http://localhost:8080/cqf-ruler/baseDstu3/Observation/Observation-601433",
      "resource": {
        "resourceType": "Observation",
        "id": "Observation-601433",
        "status": "final",
        "code": {
          "coding": [
            {
              "system": "http://loinc.org",
              "code": "29463-7",
              "display": "Weight"
            }
          ]
        },
        "subject": {
          "reference": "Patient/Patient-6539",
          "display": "Martha Bertha Wagner"
        },
        "context": {
          "reference": "Encounter/Encounter-2690",
          "display": "Wellness Visit"
        },
        "effectiveDateTime": "2015-03-06T00:00:00-05:00",
        "performer": [
          {
            "reference": "Practitioner/Practitioner-2516",
            "display": "Agnes Tammy Larson MD"
          }
        ],
        "valueQuantity": {
          "value": 25.469828065873184,
          "unit": "kg"
        }
      },
      "request": {
        "method": "PUT",
        "url": "http://localhost:8080/cqf-ruler/baseDstu3/Observation/Observation-601433"
      }
    },
    {
      "fullUrl": "http://localhost:8080/cqf-ruler/baseDstu3/Observation/Observation-601434",
      "resource": {
        "resourceType": "Observation",
        "id": "Observation-601434",
        "status": "final",
        "code": {
          "coding": [
            {
              "system": "http://loinc.org",
              "code": "39156-5",
              "display": "BMI"
            }
          ]
        },
        "subject": {
          "reference": "Patient/Patient-6539",
          "display": "Martha Bertha Wagner"
        },
        "context": {
          "reference": "Encounter/Encounter-2690",
          "display": "Wellness Visit"
        },
        "effectiveDateTime": "2015-03-06T00:00:00-05:00",
        "performer": [
          {
            "reference": "Practitioner/Practitioner-2516",
            "display": "Agnes Tammy Larson MD"
          }
        ],
        "valueQuantity": {
          "value": 10.76746186587938,
          "unit": "kg/m2"
        }
      },
      "request": {
        "method": "PUT",
        "url": "http://localhost:8080/cqf-ruler/baseDstu3/Observation/Observation-601434"
      }
    },
    {
      "fullUrl": "http://localhost:8080/cqf-ruler/baseDstu3/Observation/Observation-601435",
      "resource": {
        "resourceType": "Observation",
        "id": "Observation-601435",
        "status": "final",
        "code": {
          "coding": [
            {
              "system": "http://loinc.org",
              "code": "8310-5",
              "display": "Temperature"
            }
          ]
        },
        "subject": {
          "reference": "Patient/Patient-6539",
          "display": "Martha Bertha Wagner"
        },
        "context": {
          "reference": "Encounter/Encounter-2690",
          "display": "Wellness Visit"
        },
        "effectiveDateTime": "2015-03-06T00:00:00-05:00",
        "performer": [
          {
            "reference": "Practitioner/Practitioner-2516",
            "display": "Agnes Tammy Larson MD"
          }
        ],
        "valueQuantity": {
          "value": 37.0,
          "unit": "C"
        }
      },
      "request": {
        "method": "PUT",
        "url": "http://localhost:8080/cqf-ruler/baseDstu3/Observation/Observation-601435"
      }
    },
    {
      "fullUrl": "http://localhost:8080/cqf-ruler/baseDstu3/Observation/Observation-601436",
      "resource": {
        "resourceType": "Observation",
        "id": "Observation-601436",
        "status": "final",
        "code": {
          "coding": [
            {
              "system": "http://loinc.org",
              "code": "8459-0",
              "display": "Systolic Blood Pressure"
            }
          ]
        },
        "subject": {
          "reference": "Patient/Patient-6539",
          "display": "Martha Bertha Wagner"
        },
        "context": {
          "reference": "Encounter/Encounter-2690",
          "display": "Wellness Visit"
        },
        "effectiveDateTime": "2015-03-06T00:00:00-05:00",
        "performer": [
          {
            "reference": "Practitioner/Practitioner-2516",
            "display": "Agnes Tammy Larson MD"
          }
        ],
        "valueQuantity": {
          "value": 129.3437618219804,
          "unit": "mmHg"
        }
      },
      "request": {
        "method": "PUT",
        "url": "http://localhost:8080/cqf-ruler/baseDstu3/Observation/Observation-601436"
      }
    },
    {
      "fullUrl": "http://localhost:8080/cqf-ruler/baseDstu3/Observation/Observation-601437",
      "resource": {
        "resourceType": "Observation",
        "id": "Observation-601437",
        "status": "final",
        "code": {
          "coding": [
            {
              "system": "http://loinc.org",
              "code": "8453-3",
              "display": "Diastolic Blood Pressure"
            }
          ]
        },
        "subject": {
          "reference": "Patient/Patient-6539",
          "display": "Martha Bertha Wagner"
        },
        "context": {
          "reference": "Encounter/Encounter-2690",
          "display": "Wellness Visit"
        },
        "effectiveDateTime": "2015-03-06T00:00:00-05:00",
        "performer": [
          {
            "reference": "Practitioner/Practitioner-2516",
            "display": "Agnes Tammy Larson MD"
          }
        ],
        "valueQuantity": {
          "value": 86.67134423613925,
          "unit": "mmHg"
        }
      },
      "request": {
        "method": "PUT",
        "url": "http://localhost:8080/cqf-ruler/baseDstu3/Observation/Observation-601437"
      }
    },
    {
      "fullUrl": "http://localhost:8080/cqf-ruler/baseDstu3/DiagnosticReport/DiagnosticReport-601431",
      "resource": {
        "resourceType": "DiagnosticReport",
        "id": "DiagnosticReport-601431",
        "status": "final",
        "code": {
          "coding": [
            {
              "system": "http://loinc.org",
              "code": "8716-3",
              "display": "Vital Signs Panel"
            }
          ]
        },
        "subject": {
          "reference": "Patient/Patient-6539",
          "display": "Martha Bertha Wagner"
        },
        "context": {
          "reference": "Encounter/Encounter-2690",
          "display": "Wellness Visit"
        },
        "effectivePeriod": {
          "start": "2015-03-06T00:00:00-05:00",
          "end": "2015-03-06T00:00:00-05:00"
        },
        "issued": "2015-03-06T00:00:00.000-05:00",
        "result": [
          {
            "reference": "Observation/Observation-601432",
            "display": "Height"
          },
          {
            "reference": "Observation/Observation-601433",
            "display": "Weight"
          },
          {
            "reference": "Observation/Observation-601434",
            "display": "BMI"
          },
          {
            "reference": "Observation/Observation-601435",
            "display": "Temperature"
          },
          {
            "reference": "Observation/Observation-601436",
            "display": "Systolic Blood Pressure"
          },
          {
            "reference": "Observation/Observation-601437",
            "display": "Diastolic Blood Pressure"
          }
        ]
      },
      "request": {
        "method": "PUT",
        "url": "http://localhost:8080/cqf-ruler/baseDstu3/DiagnosticReport/DiagnosticReport-601431"
      }
    }
  ]
}