{
  "resourceType": "Bundle",
  "id": "Martha-Bertha-Wagner-6539-Encounter-1819",
  "type": "transaction",
  "entry": [
    {
      "fullUrl": "http://localhost:8080/cqf-ruler/baseDstu3/Encounter/Encounter-1819",
      "resource": {
        "resourceType": "Encounter",
        "id": "Encounter-1819",
        "status": "finished",
        "class": {
          "system": "http://hl7.org/fhir/encounter-class",
          "code": "outpatient",
          "display": "Inpatient"
        },
        "subject": {
          "reference": "Patient/Patient-6539",
          "display": "Martha Bertha Wagner"
        },
        "participant": [
          {
            "period": {
              "start": "2008-01-25T00:00:00-05:00",
              "end": "2008-01-25T00:00:00-05:00"
            },
            "individual": {
              "reference": "Practitioner/Practitioner-2516",
              "display": "Agnes Tammy Larson MD"
            }
          }
        ],
        "period": {
          "start": "2008-01-25T00:00:00-05:00",
          "end": "2008-01-25T00:00:00-05:00"
        },
        "location": [
          {
            "location": {
              "reference": "Location/Location-1101",
              "display": "McKinley Health Center"
            }
          }
        ],
        "serviceProvider": {
          "reference": "Organization/Organization-1101",
          "display": "McKinley Health Center"
        }
      },
      "request": {
        "method": "PUT",
        "url": "http://localhost:8080/cqf-ruler/baseDstu3/Encounter/Encounter-1819"
      }
    },
    {
      "fullUrl": "http://localhost:8080/cqf-ruler/baseDstu3/Immunization/Immunization-397960",
      "resource": {
        "resourceType": "Immunization",
        "id": "Immunization-397960",
        "status": "completed",
        "notGiven": false,
        "vaccineCode": {
          "coding": [
            {
              "system": "http://hl7.org/fhir/sid/cvx",
              "code": "140",
              "display": "Influenza, seasonal, injectable, preservative free"
            }
          ]
        },
        "patient": {
          "reference": "Patient/Patient-6539",
          "display": "Martha Bertha Wagner"
        },
        "date": "2008-01-25T00:00:00-05:00",
        "primarySource": true,
        "location": {
          "reference": "Location/Location-1101",
          "display": "McKinley Health Center"
        },
        "practitioner": [
          {
            "actor": {
              "reference": "Practitioner/Practitioner-2516",
              "display": "Agnes Tammy Larson MD"
            }
          }
        ]
      },
      "request": {
        "method": "PUT",
        "url": "http://localhost:8080/cqf-ruler/baseDstu3/Immunization/Immunization-397960"
      }
    },
    {
      "fullUrl": "http://localhost:8080/cqf-ruler/baseDstu3/Observation/Observation-420831",
      "resource": {
        "resourceType": "Observation",
        "id": "Observation-420831",
        "status": "final",
        "code": {
          "coding": [
            {
              "system": "http://loinc.org",
              "code": "8480-6",
              "display": "Systolic blood pressure"
            }
          ]
        },
        "subject": {
          "reference": "Patient/Patient-6539",
          "display": "Martha Bertha Wagner"
        },
        "context": {
          "reference": "Encounter/Encounter-1819",
          "display": "Wellness Visit"
        },
        "effectivePeriod": {
          "start": "2008-01-25T00:00:00-05:00",
          "end": "2008-01-25T00:00:00-05:00"
        },
        "performer": [
          {
            "reference": "Practitioner/Practitioner-2516",
            "display": "Agnes Tammy Larson MD"
          }
        ],
        "valueQuantity": {
          "value": 150.968798635761,
          "unit": "mmHg"
        }
      },
      "request": {
        "method": "PUT",
        "url": "http://localhost:8080/cqf-ruler/baseDstu3/Observation/Observation-420831"
      }
    },
    {
      "fullUrl": "http://localhost:8080/cqf-ruler/baseDstu3/Observation/Observation-420832",
      "resource": {
        "resourceType": "Observation",
        "id": "Observation-420832",
        "status": "final",
        "code": {
          "coding": [
            {
              "system": "http://loinc.org",
              "code": "8462-4",
              "display": "Diastolic blood pressure"
            }
          ]
        },
        "subject": {
          "reference": "Patient/Patient-6539",
          "display": "Martha Bertha Wagner"
        },
        "context": {
          "reference": "Encounter/Encounter-1819",
          "display": "Wellness Visit"
        },
        "effectivePeriod": {
          "start": "2008-01-25T00:00:00-05:00",
          "end": "2008-01-25T00:00:00-05:00"
        },
        "performer": [
          {
            "reference": "Practitioner/Practitioner-2516",
            "display": "Agnes Tammy Larson MD"
          }
        ],
        "valueQuantity": {
          "value": 110.36125621882968,
          "unit": "mmHg"
        }
      },
      "request": {
        "method": "PUT",
        "url": "http://localhost:8080/cqf-ruler/baseDstu3/Observation/Observation-420832"
      }
    },
    {
      "fullUrl": "http://localhost:8080/cqf-ruler/baseDstu3/Condition/Condition-420833",
      "resource": {
        "resourceType": "Condition",
        "id": "Condition-420833",
        "clinicalStatus": "active",
        "verificationStatus": "confirmed",
        "code": {
          "coding": [
            {
              "system": "http://snomed.info/sct",
              "code": "10725009",
              "display": "Benign hypertension"
            }
          ]
        },
        "subject": {
          "reference": "Patient/Patient-6539",
          "display": "Martha Bertha Wagner"
        },
        "context": {
          "reference": "Encounter/Encounter-1819",
          "display": "Wellness Visit"
        },
        "onsetDateTime": "2008-01-25T00:00:00-05:00",
        "assertedDate": "2008-01-25T00:00:00-05:00",
        "asserter": {
          "reference": "Practitioner/Practitioner-2516",
          "display": "Agnes Tammy Larson MD"
        }
      },
      "request": {
        "method": "PUT",
        "url": "http://localhost:8080/cqf-ruler/baseDstu3/Condition/Condition-420833"
      }
    },
    {
      "fullUrl": "http://localhost:8080/cqf-ruler/baseDstu3/Observation/Observation-420834",
      "resource": {
        "resourceType": "Observation",
        "id": "Observation-420834",
        "status": "final",
        "code": {
          "coding": [
            {
              "system": "http://loinc.org",
              "code": "8302-2",
              "display": "Body Height"
            }
          ]
        },
        "subject": {
          "reference": "Patient/Patient-6539",
          "display": "Martha Bertha Wagner"
        },
        "context": {
          "reference": "Encounter/Encounter-1819",
          "display": "Wellness Visit"
        },
        "effectivePeriod": {
          "start": "2008-01-25T00:00:00-05:00",
          "end": "2008-01-25T00:00:00-05:00"
        },
        "performer": [
          {
            "reference": "Practitioner/Practitioner-2516",
            "display": "Agnes Tammy Larson MD"
          }
        ],
        "valueQuantity": {
          "value": 112.1,
          "unit": "cm"
        }
      },
      "request": {
        "method": "PUT",
        "url": "http://localhost:8080/cqf-ruler/baseDstu3/Observation/Observation-420834"
      }
    },
    {
      "fullUrl": "http://localhost:8080/cqf-ruler/baseDstu3/Observation/Observation-420835",
      "resource": {
        "resourceType": "Observation",
        "id": "Observation-420835",
        "status": "final",
        "code": {
          "coding": [
            {
              "system": "http://loinc.org",
              "code": "29463-7",
              "display": "Body Weight"
            }
          ]
        },
        "subject": {
          "reference": "Patient/Patient-6539",
          "display": "Martha Bertha Wagner"
        },
        "context": {
          "reference": "Encounter/Encounter-1819",
          "display": "Wellness Visit"
        },
        "effectivePeriod": {
          "start": "2008-01-25T00:00:00-05:00",
          "end": "2008-01-25T00:00:00-05:00"
        },
        "performer": [
          {
            "reference": "Practitioner/Practitioner-2516",
            "display": "Agnes Tammy Larson MD"
          }
        ],
        "valueQuantity": {
          "value": 23.26554218995235,
          "unit": "kg"
        }
      },
      "request": {
        "method": "PUT",
        "url": "http://localhost:8080/cqf-ruler/baseDstu3/Observation/Observation-420835"
      }
    },
    {
      "fullUrl": "http://localhost:8080/cqf-ruler/baseDstu3/Observation/Observation-420836",
      "resource": {
        "resourceType": "Observation",
        "id": "Observation-420836",
        "status": "final",
        "code": {
          "coding": [
            {
              "system": "http://loinc.org",
              "code": "39156-5",
              "display": "Body Mass Index"
            }
          ]
        },
        "subject": {
          "reference": "Patient/Patient-6539",
          "display": "Martha Bertha Wagner"
        },
        "context": {
          "reference": "Encounter/Encounter-1819",
          "display": "Wellness Visit"
        },
        "effectivePeriod": {
          "start": "2008-01-25T00:00:00-05:00",
          "end": "2008-01-25T00:00:00-05:00"
        },
        "performer": [
          {
            "reference": "Practitioner/Practitioner-2516",
            "display": "Agnes Tammy Larson MD"
          }
        ],
        "valueQuantity": {
          "value": 18.514072189234913,
          "unit": "kg/m2"
        }
      },
      "request": {
        "method": "PUT",
        "url": "http://localhost:8080/cqf-ruler/baseDstu3/Observation/Observation-420836"
      }
    },
    {
      "fullUrl": "http://localhost:8080/cqf-ruler/baseDstu3/Observation/Observation-420839",
      "resource": {
        "resourceType": "Observation",
        "id": "Observation-420839",
        "status": "final",
        "category": [
          {
            "coding": [
              {
                "system": "http://hl7.org/fhir/observation-category",
                "code": "vital-signs",
                "display": "vital-signs"
              }
            ]
          }
        ],
        "code": {
          "coding": [
            {
              "system": "http://loinc.org",
              "code": "55284-4",
              "display": "Blood Pressure"
            }
          ]
        },
        "subject": {
          "reference": "Patient/Patient-6539",
          "display": "Martha Bertha Wagner"
        },
        "context": {
          "reference": "Encounter/Encounter-1819",
          "display": "Wellness Visit"
        },
        "effectivePeriod": {
          "start": "2008-01-25T00:00:00-05:00",
          "end": "2008-01-25T00:00:00-05:00"
        },
        "valueQuantity": {
          "value": 110.36125621882968,
          "unit": "mmHg"
        },
        "component": [
          {
            "code": {
              "coding": [
                {
                  "system": "http://loinc.org",
                  "code": "8480-6",
                  "display": "Systolic Blood Pressure"
                }
              ]
            }
          },
          {
            "code": {
              "coding": [
                {
                  "system": "http://loinc.org",
                  "code": "8462-4",
                  "display": "Diastolic Blood Pressure"
                }
              ]
            }
          }
        ]
      },
      "request": {
        "method": "PUT",
        "url": "http://localhost:8080/cqf-ruler/baseDstu3/Observation/Observation-420839"
      }
    },
    {
      "fullUrl": "http://localhost:8080/cqf-ruler/baseDstu3/Observation/Observation-420841",
      "resource": {
        "resourceType": "Observation",
        "id": "Observation-420841",
        "status": "final",
        "code": {
          "coding": [
            {
              "system": "http://loinc.org",
              "code": "8302-2",
              "display": "Height"
            }
          ]
        },
        "subject": {
          "reference": "Patient/Patient-6539",
          "display": "Martha Bertha Wagner"
        },
        "context": {
          "reference": "Encounter/Encounter-1819",
          "display": "Wellness Visit"
        },
        "effectiveDateTime": "2008-01-25T00:00:00-05:00",
        "performer": [
          {
            "reference": "Practitioner/Practitioner-2516",
            "display": "Agnes Tammy Larson MD"
          }
        ],
        "valueQuantity": {
          "value": 112.1,
          "unit": "cm"
        }
      },
      "request": {
        "method": "PUT",
        "url": "http://localhost:8080/cqf-ruler/baseDstu3/Observation/Observation-420841"
      }
    },
    {
      "fullUrl": "http://localhost:8080/cqf-ruler/baseDstu3/Observation/Observation-420842",
      "resource": {
        "resourceType": "Observation",
        "id": "Observation-420842",
        "status": "final",
        "code": {
          "coding": [
            {
              "system": "http://loinc.org",
              "code": "29463-7",
              "display": "Weight"
            }
          ]
        },
        "subject": {
          "reference": "Patient/Patient-6539",
          "display": "Martha Bertha Wagner"
        },
        "context": {
          "reference": "Encounter/Encounter-1819",
          "display": "Wellness Visit"
        },
        "effectiveDateTime": "2008-01-25T00:00:00-05:00",
        "performer": [
          {
            "reference": "Practitioner/Practitioner-2516",
            "display": "Agnes Tammy Larson MD"
          }
        ],
        "valueQuantity": {
          "value": 23.26554218995235,
          "unit": "kg"
        }
      },
      "request": {
        "method": "PUT",
        "url": "http://localhost:8080/cqf-ruler/baseDstu3/Observation/Observation-420842"
      }
    },
    {
      "fullUrl": "http://localhost:8080/cqf-ruler/baseDstu3/Observation/Observation-420843",
      "resource": {
        "resourceType": "Observation",
        "id": "Observation-420843",
        "status": "final",
        "code": {
          "coding": [
            {
              "system": "http://loinc.org",
              "code": "39156-5",
              "display": "BMI"
            }
          ]
        },
        "subject": {
          "reference": "Patient/Patient-6539",
          "display": "Martha Bertha Wagner"
        },
        "context": {
          "reference": "Encounter/Encounter-1819",
          "display": "Wellness Visit"
        },
        "effectiveDateTime": "2008-01-25T00:00:00-05:00",
        "performer": [
          {
            "reference": "Practitioner/Practitioner-2516",
            "display": "Agnes Tammy Larson MD"
          }
        ],
        "valueQuantity": {
          "value": 18.514072189234913,
          "unit": "kg/m2"
        }
      },
      "request": {
        "method": "PUT",
        "url": "http://localhost:8080/cqf-ruler/baseDstu3/Observation/Observation-420843"
      }
    },
    {
      "fullUrl": "http://localhost:8080/cqf-ruler/baseDstu3/Observation/Observation-420844",
      "resource": {
        "resourceType": "Observation",
        "id": "Observation-420844",
        "status": "final",
        "code": {
          "coding": [
            {
              "system": "http://loinc.org",
              "code": "8310-5",
              "display": "Temperature"
            }
          ]
        },
        "subject": {
          "reference": "Patient/Patient-6539",
          "display": "Martha Bertha Wagner"
        },
        "context": {
          "reference": "Encounter/Encounter-1819",
          "display": "Wellness Visit"
        },
        "effectiveDateTime": "2008-01-25T00:00:00-05:00",
        "performer": [
          {
            "reference": "Practitioner/Practitioner-2516",
            "display": "Agnes Tammy Larson MD"
          }
        ],
        "valueQuantity": {
          "value": 37.0,
          "unit": "C"
        }
      },
      "request": {
        "method": "PUT",
        "url": "http://localhost:8080/cqf-ruler/baseDstu3/Observation/Observation-420844"
      }
    },
    {
      "fullUrl": "http://localhost:8080/cqf-ruler/baseDstu3/Observation/Observation-420845",
      "resource": {
        "resourceType": "Observation",
        "id": "Observation-420845",
        "status": "final",
        "code": {
          "coding": [
            {
              "system": "http://loinc.org",
              "code": "8459-0",
              "display": "Systolic Blood Pressure"
            }
          ]
        },
        "subject": {
          "reference": "Patient/Patient-6539",
          "display": "Martha Bertha Wagner"
        },
        "context": {
          "reference": "Encounter/Encounter-1819",
          "display": "Wellness Visit"
        },
        "effectiveDateTime": "2008-01-25T00:00:00-05:00",
        "performer": [
          {
            "reference": "Practitioner/Practitioner-2516",
            "display": "Agnes Tammy Larson MD"
          }
        ],
        "valueQuantity": {
          "value": 150.968798635761,
          "unit": "mmHg"
        }
      },
      "request": {
        "method": "PUT",
        "url": "http://localhost:8080/cqf-ruler/baseDstu3/Observation/Observation-420845"
      }
    },
    {
      "fullUrl": "http://localhost:8080/cqf-ruler/baseDstu3/Observation/Observation-420846",
      "resource": {
        "resourceType": "Observation",
        "id": "Observation-420846",
        "status": "final",
        "code": {
          "coding": [
            {
              "system": "http://loinc.org",
              "code": "8453-3",
              "display": "Diastolic Blood Pressure"
            }
          ]
        },
        "subject": {
          "reference": "Patient/Patient-6539",
          "display": "Martha Bertha Wagner"
        },
        "context": {
          "reference": "Encounter/Encounter-1819",
          "display": "Wellness Visit"
        },
        "effectiveDateTime": "2008-01-25T00:00:00-05:00",
        "performer": [
          {
            "reference": "Practitioner/Practitioner-2516",
            "display": "Agnes Tammy Larson MD"
          }
        ],
        "valueQuantity": {
          "value": 110.36125621882968,
          "unit": "mmHg"
        }
      },
      "request": {
        "method": "PUT",
        "url": "http://localhost:8080/cqf-ruler/baseDstu3/Observation/Observation-420846"
      }
    },
    {
      "fullUrl": "http://localhost:8080/cqf-ruler/baseDstu3/DiagnosticReport/DiagnosticReport-420840",
      "resource": {
        "resourceType": "DiagnosticReport",
        "id": "DiagnosticReport-420840",
        "status": "final",
        "code": {
          "coding": [
            {
              "system": "http://loinc.org",
              "code": "8716-3",
              "display": "Vital Signs Panel"
            }
          ]
        },
        "subject": {
          "reference": "Patient/Patient-6539",
          "display": "Martha Bertha Wagner"
        },
        "context": {
          "reference": "Encounter/Encounter-1819",
          "display": "Wellness Visit"
        },
        "effectivePeriod": {
          "start": "2008-01-25T00:00:00-05:00",
          "end": "2008-01-25T00:00:00-05:00"
        },
        "issued": "2008-01-25T00:00:00.000-05:00",
        "result": [
          {
            "reference": "Observation/Observation-420841",
            "display": "Height"
          },
          {
            "reference": "Observation/Observation-420842",
            "display": "Weight"
          },
          {
            "reference": "Observation/Observation-420843",
            "display": "BMI"
          },
          {
            "reference": "Observation/Observation-420844",
            "display": "Temperature"
          },
          {
            "reference": "Observation/Observation-420845",
            "display": "Systolic Blood Pressure"
          },
          {
            "reference": "Observation/Observation-420846",
            "display": "Diastolic Blood Pressure"
          }
        ]
      },
      "request": {
        "method": "PUT",
        "url": "http://localhost:8080/cqf-ruler/baseDstu3/DiagnosticReport/DiagnosticReport-420840"
      }
    }
  ]
}