{
  "resourceType": "Bundle",
  "id": "Martha Bertha Wagner-6539-Encounter-1386",
  "type": "transaction",
  "entry": [
    {
      "fullUrl": "http://localhost:8080/cqf-ruler/baseDstu3/Encounter/Encounter-1386",
      "resource": {
        "resourceType": "Encounter",
        "id": "Encounter-1386",
        "status": "finished",
        "class": {
          "system": "http://hl7.org/fhir/encounter-class",
          "code": "outpatient",
          "display": "Inpatient"
        },
        "subject": {
          "reference": "Patient/Patient-6539",
          "display": "Martha Bertha Wagner"
        },
        "participant": [
          {
            "period": {
              "start": "2001-12-24T22:00:00-05:00",
              "end": "2001-12-24T22:00:00-05:00"
            },
            "individual": {
              "reference": "Practitioner/Practitioner-2516",
              "display": "Agnes Tammy Larson MD"
            }
          }
        ],
        "period": {
          "start": "2001-12-24T22:00:00-05:00",
          "end": "2001-12-24T22:00:00-05:00"
        },
        "location": [
          {
            "location": {
              "reference": "Location/Location-1101",
              "display": "McKinley Health Center"
            }
          }
        ],
        "serviceProvider": {
          "reference": "Organization/Organization-1101",
          "display": "McKinley Health Center"
        }
      },
      "request": {
        "method": "PUT",
        "url": "http://localhost:8080/cqf-ruler/baseDstu3/Encounter/Encounter-1386"
      }
    },
    {
      "fullUrl": "http://localhost:8080/cqf-ruler/baseDstu3/Immunization/Immunization-272196",
      "resource": {
        "resourceType": "Immunization",
        "id": "Immunization-272196",
        "status": "completed",
        "notGiven": false,
        "vaccineCode": {
          "coding": [
            {
              "system": "http://hl7.org/fhir/sid/cvx",
              "code": "08",
              "display": "Hep B, adolescent or pediatric"
            }
          ]
        },
        "patient": {
          "reference": "Patient/Patient-6539",
          "display": "Martha Bertha Wagner"
        },
        "date": "2001-12-24T22:00:00-05:00",
        "primarySource": true,
        "location": {
          "reference": "Location/Location-1101",
          "display": "McKinley Health Center"
        },
        "practitioner": [
          {
            "actor": {
              "reference": "Practitioner/Practitioner-2516",
              "display": "Agnes Tammy Larson MD"
            }
          }
        ]
      },
      "request": {
        "method": "PUT",
        "url": "http://localhost:8080/cqf-ruler/baseDstu3/Immunization/Immunization-272196"
      }
    },
    {
      "fullUrl": "http://localhost:8080/cqf-ruler/baseDstu3/Observation/Observation-273949",
      "resource": {
        "resourceType": "Observation",
        "id": "Observation-273949",
        "status": "final",
        "code": {
          "coding": [
            {
              "system": "http://loinc.org",
              "code": "8302-2",
              "display": "Height"
            }
          ]
        },
        "subject": {
          "reference": "Patient/Patient-6539",
          "display": "Martha Bertha Wagner"
        },
        "context": {
          "reference": "Encounter/Encounter-1386",
          "display": "McKinley Health Center"
        },
        "effectiveDateTime": "2001-12-24T22:00:00-05:00",
        "performer": [
          {
            "reference": "Practitioner/Practitioner-2516",
            "display": "Agnes Tammy Larson MD"
          }
        ],
        "valueQuantity": {
          "value": 51.7,
          "unit": "cm"
        }
      },
      "request": {
        "method": "PUT",
        "url": "http://localhost:8080/cqf-ruler/baseDstu3/Observation/Observation-273949"
      }
    },
    {
      "fullUrl": "http://localhost:8080/cqf-ruler/baseDstu3/Observation/Observation-273950",
      "resource": {
        "resourceType": "Observation",
        "id": "Observation-273950",
        "status": "final",
        "code": {
          "coding": [
            {
              "system": "http://loinc.org",
              "code": "29463-7",
              "display": "Weight"
            }
          ]
        },
        "subject": {
          "reference": "Patient/Patient-6539",
          "display": "Martha Bertha Wagner"
        },
        "context": {
          "reference": "Encounter/Encounter-1386",
          "display": "McKinley Health Center"
        },
        "effectiveDateTime": "2001-12-24T22:00:00-05:00",
        "performer": [
          {
            "reference": "Practitioner/Practitioner-2516",
            "display": "Agnes Tammy Larson MD"
          }
        ],
        "valueQuantity": {
          "value": 0.0,
          "unit": "kg"
        }
      },
      "request": {
        "method": "PUT",
        "url": "http://localhost:8080/cqf-ruler/baseDstu3/Observation/Observation-273950"
      }
    },
    {
      "fullUrl": "http://localhost:8080/cqf-ruler/baseDstu3/Observation/Observation-273951",
      "resource": {
        "resourceType": "Observation",
        "id": "Observation-273951",
        "status": "final",
        "code": {
          "coding": [
            {
              "system": "http://loinc.org",
              "code": "39156-5",
              "display": "BMI"
            }
          ]
        },
        "subject": {
          "reference": "Patient/Patient-6539",
          "display": "Martha Bertha Wagner"
        },
        "context": {
          "reference": "Encounter/Encounter-1386",
          "display": "McKinley Health Center"
        },
        "effectiveDateTime": "2001-12-24T22:00:00-05:00",
        "performer": [
          {
            "reference": "Practitioner/Practitioner-2516",
            "display": "Agnes Tammy Larson MD"
          }
        ],
        "valueQuantity": {
          "value": 0.0,
          "unit": "kg/m2"
        }
      },
      "request": {
        "method": "PUT",
        "url": "http://localhost:8080/cqf-ruler/baseDstu3/Observation/Observation-273951"
      }
    },
    {
      "fullUrl": "http://localhost:8080/cqf-ruler/baseDstu3/Observation/Observation-273952",
      "resource": {
        "resourceType": "Observation",
        "id": "Observation-273952",
        "status": "final",
        "code": {
          "coding": [
            {
              "system": "http://loinc.org",
              "code": "8310-5",
              "display": "Temperature"
            }
          ]
        },
        "subject": {
          "reference": "Patient/Patient-6539",
          "display": "Martha Bertha Wagner"
        },
        "context": {
          "reference": "Encounter/Encounter-1386",
          "display": "McKinley Health Center"
        },
        "effectiveDateTime": "2001-12-24T22:00:00-05:00",
        "performer": [
          {
            "reference": "Practitioner/Practitioner-2516",
            "display": "Agnes Tammy Larson MD"
          }
        ],
        "valueQuantity": {
          "value": 37.0,
          "unit": "C"
        }
      },
      "request": {
        "method": "PUT",
        "url": "http://localhost:8080/cqf-ruler/baseDstu3/Observation/Observation-273952"
      }
    },
    {
      "fullUrl": "http://localhost:8080/cqf-ruler/baseDstu3/Observation/Observation-273953",
      "resource": {
        "resourceType": "Observation",
        "id": "Observation-273953",
        "status": "final",
        "code": {
          "coding": [
            {
              "system": "http://loinc.org",
              "code": "8459-0",
              "display": "Systolic Blood Pressure"
            }
          ]
        },
        "subject": {
          "reference": "Patient/Patient-6539",
          "display": "Martha Bertha Wagner"
        },
        "context": {
          "reference": "Encounter/Encounter-1386",
          "display": "McKinley Health Center"
        },
        "effectiveDateTime": "2001-12-24T22:00:00-05:00",
        "performer": [
          {
            "reference": "Practitioner/Practitioner-2516",
            "display": "Agnes Tammy Larson MD"
          }
        ],
        "valueQuantity": {
          "value": 120.25898033257546,
          "unit": "mmHg"
        }
      },
      "request": {
        "method": "PUT",
        "url": "http://localhost:8080/cqf-ruler/baseDstu3/Observation/Observation-273953"
      }
    },
    {
      "fullUrl": "http://localhost:8080/cqf-ruler/baseDstu3/Observation/Observation-273954",
      "resource": {
        "resourceType": "Observation",
        "id": "Observation-273954",
        "status": "final",
        "code": {
          "coding": [
            {
              "system": "http://loinc.org",
              "code": "8453-3",
              "display": "Diastolic Blood Pressure"
            }
          ]
        },
        "subject": {
          "reference": "Patient/Patient-6539",
          "display": "Martha Bertha Wagner"
        },
        "context": {
          "reference": "Encounter/Encounter-1386",
          "display": "McKinley Health Center"
        },
        "effectiveDateTime": "2001-12-24T22:00:00-05:00",
        "performer": [
          {
            "reference": "Practitioner/Practitioner-2516",
            "display": "Agnes Tammy Larson MD"
          }
        ],
        "valueQuantity": {
          "value": 81.64097820756135,
          "unit": "mmHg"
        }
      },
      "request": {
        "method": "PUT",
        "url": "http://localhost:8080/cqf-ruler/baseDstu3/Observation/Observation-273954"
      }
    },
    {
      "fullUrl": "http://localhost:8080/cqf-ruler/baseDstu3/DiagnosticReport/DiagnosticReport-273948",
      "resource": {
        "resourceType": "DiagnosticReport",
        "id": "DiagnosticReport-273948",
        "status": "final",
        "code": {
          "coding": [
            {
              "system": "http://loinc.org",
              "code": "8716-3",
              "display": "Vital Signs Panel"
            }
          ]
        },
        "subject": {
          "reference": "Patient/Patient-6539",
          "display": "Martha Bertha Wagner"
        },
        "context": {
          "reference": "Encounter/Encounter-1386",
          "display": "McKinley Health Center"
        },
        "effectivePeriod": {
          "start": "2001-12-24T22:00:00-05:00",
          "end": "2001-12-24T22:00:00-05:00"
        },
        "issued": "2001-12-24T22:00:00.000-05:00",
        "result": [
          {
            "reference": "Observation/Observation-273949",
            "display": "Height"
          },
          {
            "reference": "Observation/Observation-273950",
            "display": "Weight"
          },
          {
            "reference": "Observation/Observation-273951",
            "display": "BMI"
          },
          {
            "reference": "Observation/Observation-273952",
            "display": "Temperature"
          },
          {
            "reference": "Observation/Observation-273953",
            "display": "Systolic Blood Pressure"
          },
          {
            "reference": "Observation/Observation-273954",
            "display": "Diastolic Blood Pressure"
          }
        ]
      },
      "request": {
        "method": "PUT",
        "url": "http://localhost:8080/cqf-ruler/baseDstu3/DiagnosticReport/DiagnosticReport-273948"
      }
    }
  ]
}