{
  "resourceType": "Bundle",
  "id": "Martha-Bertha-Wagner-6539-Encounter-4617",
  "type": "transaction",
  "entry": [
    {
      "fullUrl": "http://localhost:8080/cqf-ruler/baseDstu3/Encounter/Encounter-4617",
      "resource": {
        "resourceType": "Encounter",
        "id": "Encounter-4617",
        "meta": {
          "profile": [
            "http://hl7.org/fhir/us/hedis/StructureDefinition/hedis-encounter"
          ]
        },
        "status": "finished",
        "class": {
          "system": "http://hl7.org/fhir/encounter-class",
          "code": "outpatient",
          "display": "Outpatient"
        },
        "type": [
          {
            "coding": [
              {
                "system": "http://snomed.info/sct",
                "code": "185345009",
                "display": "Encounter for symptom"
              }
            ]
          }
        ],
        "subject": {
          "reference": "Patient/Patient-6539",
          "display": "Martha Bertha Wagner"
        },
        "participant": [
          {
            "period": {
              "start": "2017-12-08T00:00:00-05:00",
              "end": "2017-12-08T00:00:00-05:00"
            },
            "individual": {
              "reference": "Practitioner/Practitioner-2516",
              "display": "Agnes Tammy Larson MD"
            }
          }
        ],
        "period": {
          "start": "2017-12-08T00:00:00-05:00",
          "end": "2017-12-08T00:00:00-05:00"
        },
        "location": [
          {
            "location": {
              "reference": "Location/Location-1101",
              "display": "McKinley Health Center"
            }
          }
        ],
        "serviceProvider": {
          "reference": "Organization/Organization-1101",
          "display": "McKinley Health Center"
        }
      },
      "request": {
        "method": "PUT",
        "url": "http://localhost:8080/cqf-ruler/baseDstu3/Encounter/Encounter-4617"
      }
    },
    {
      "fullUrl": "http://localhost:8080/cqf-ruler/baseDstu3/Observation/Observation-703765",
      "resource": {
        "resourceType": "Observation",
        "id": "Observation-703765",
        "status": "final",
        "code": {
          "coding": [
            {
              "system": "http://loinc.org",
              "code": "8302-2",
              "display": "Height"
            }
          ]
        },
        "subject": {
          "reference": "Patient/Patient-6539",
          "display": "Martha Bertha Wagner"
        },
        "context": {
          "reference": "Encounter/Encounter-4617",
          "display": "Wellness_Encounter"
        },
        "effectiveDateTime": "2017-12-08T00:00:00-05:00",
        "performer": [
          {
            "reference": "Practitioner/Practitioner-2516",
            "display": "Agnes Tammy Larson MD"
          }
        ],
        "valueQuantity": {
          "value": 158.2,
          "unit": "cm"
        }
      },
      "request": {
        "method": "PUT",
        "url": "http://localhost:8080/cqf-ruler/baseDstu3/Observation/Observation-703765"
      }
    },
    {
      "fullUrl": "http://localhost:8080/cqf-ruler/baseDstu3/Observation/Observation-703766",
      "resource": {
        "resourceType": "Observation",
        "id": "Observation-703766",
        "status": "final",
        "code": {
          "coding": [
            {
              "system": "http://loinc.org",
              "code": "29463-7",
              "display": "Weight"
            }
          ]
        },
        "subject": {
          "reference": "Patient/Patient-6539",
          "display": "Martha Bertha Wagner"
        },
        "context": {
          "reference": "Encounter/Encounter-4617",
          "display": "Wellness_Encounter"
        },
        "effectiveDateTime": "2017-12-08T00:00:00-05:00",
        "performer": [
          {
            "reference": "Practitioner/Practitioner-2516",
            "display": "Agnes Tammy Larson MD"
          }
        ],
        "valueQuantity": {
          "value": 44.46003298340641,
          "unit": "kg"
        }
      },
      "request": {
        "method": "PUT",
        "url": "http://localhost:8080/cqf-ruler/baseDstu3/Observation/Observation-703766"
      }
    },
    {
      "fullUrl": "http://localhost:8080/cqf-ruler/baseDstu3/Observation/Observation-703767",
      "resource": {
        "resourceType": "Observation",
        "id": "Observation-703767",
        "status": "final",
        "code": {
          "coding": [
            {
              "system": "http://loinc.org",
              "code": "39156-5",
              "display": "BMI"
            }
          ]
        },
        "subject": {
          "reference": "Patient/Patient-6539",
          "display": "Martha Bertha Wagner"
        },
        "context": {
          "reference": "Encounter/Encounter-4617",
          "display": "Wellness_Encounter"
        },
        "effectiveDateTime": "2017-12-08T00:00:00-05:00",
        "performer": [
          {
            "reference": "Practitioner/Practitioner-2516",
            "display": "Agnes Tammy Larson MD"
          }
        ],
        "valueQuantity": {
          "value": 17.76465682328791,
          "unit": "kg/m2"
        }
      },
      "request": {
        "method": "PUT",
        "url": "http://localhost:8080/cqf-ruler/baseDstu3/Observation/Observation-703767"
      }
    },
    {
      "fullUrl": "http://localhost:8080/cqf-ruler/baseDstu3/Observation/Observation-703768",
      "resource": {
        "resourceType": "Observation",
        "id": "Observation-703768",
        "status": "final",
        "code": {
          "coding": [
            {
              "system": "http://loinc.org",
              "code": "8310-5",
              "display": "Temperature"
            }
          ]
        },
        "subject": {
          "reference": "Patient/Patient-6539",
          "display": "Martha Bertha Wagner"
        },
        "context": {
          "reference": "Encounter/Encounter-4617",
          "display": "Wellness_Encounter"
        },
        "effectiveDateTime": "2017-12-08T00:00:00-05:00",
        "performer": [
          {
            "reference": "Practitioner/Practitioner-2516",
            "display": "Agnes Tammy Larson MD"
          }
        ],
        "valueQuantity": {
          "value": 37.0,
          "unit": "C"
        }
      },
      "request": {
        "method": "PUT",
        "url": "http://localhost:8080/cqf-ruler/baseDstu3/Observation/Observation-703768"
      }
    },
    {
      "fullUrl": "http://localhost:8080/cqf-ruler/baseDstu3/Observation/Observation-703769",
      "resource": {
        "resourceType": "Observation",
        "id": "Observation-703769",
        "status": "final",
        "code": {
          "coding": [
            {
              "system": "http://loinc.org",
              "code": "8459-0",
              "display": "Systolic Blood Pressure"
            }
          ]
        },
        "subject": {
          "reference": "Patient/Patient-6539",
          "display": "Martha Bertha Wagner"
        },
        "context": {
          "reference": "Encounter/Encounter-4617",
          "display": "Wellness_Encounter"
        },
        "effectiveDateTime": "2017-12-08T00:00:00-05:00",
        "performer": [
          {
            "reference": "Practitioner/Practitioner-2516",
            "display": "Agnes Tammy Larson MD"
          }
        ],
        "valueQuantity": {
          "value": 168.01728347509598,
          "unit": "mmHg"
        }
      },
      "request": {
        "method": "PUT",
        "url": "http://localhost:8080/cqf-ruler/baseDstu3/Observation/Observation-703769"
      }
    },
    {
      "fullUrl": "http://localhost:8080/cqf-ruler/baseDstu3/Observation/Observation-703770",
      "resource": {
        "resourceType": "Observation",
        "id": "Observation-703770",
        "status": "final",
        "code": {
          "coding": [
            {
              "system": "http://loinc.org",
              "code": "8453-3",
              "display": "Diastolic Blood Pressure"
            }
          ]
        },
        "subject": {
          "reference": "Patient/Patient-6539",
          "display": "Martha Bertha Wagner"
        },
        "context": {
          "reference": "Encounter/Encounter-4617",
          "display": "Wellness_Encounter"
        },
        "effectiveDateTime": "2017-12-08T00:00:00-05:00",
        "performer": [
          {
            "reference": "Practitioner/Practitioner-2516",
            "display": "Agnes Tammy Larson MD"
          }
        ],
        "valueQuantity": {
          "value": 95.10511166874998,
          "unit": "mmHg"
        }
      },
      "request": {
        "method": "PUT",
        "url": "http://localhost:8080/cqf-ruler/baseDstu3/Observation/Observation-703770"
      }
    },
    {
      "fullUrl": "http://localhost:8080/cqf-ruler/baseDstu3/DiagnosticReport/DiagnosticReport-703764",
      "resource": {
        "resourceType": "DiagnosticReport",
        "id": "DiagnosticReport-703764",
        "meta": {
          "profile": [
            "http://hl7.org/fhir/us/hedis/StructureDefinition/hedis-diagnosticreport"
          ]
        },
        "status": "final",
        "category": {
          "coding": [
            {
              "system": "http://hl7.org/fhir/ValueSet/diagnostic-service-sections",
              "code": "LAB",
              "display": "Laboratory"
            }
          ]
        },
        "code": {
          "coding": [
            {
              "system": "http://loinc.org",
              "code": "8716-3",
              "display": "Vital Signs Panel"
            }
          ]
        },
        "subject": {
          "reference": "Patient/Patient-6539",
          "display": "Martha Bertha Wagner"
        },
        "context": {
          "reference": "Encounter/Encounter-4617",
          "display": "Wellness_Encounter"
        },
        "effectivePeriod": {
          "start": "2017-12-08T00:00:00-05:00",
          "end": "2017-12-08T00:00:00-05:00"
        },
        "issued": "2017-12-08T00:00:00.000-05:00",
        "result": [
          {
            "reference": "Observation/Observation-703765",
            "display": "Height"
          },
          {
            "reference": "Observation/Observation-703766",
            "display": "Weight"
          },
          {
            "reference": "Observation/Observation-703767",
            "display": "BMI"
          },
          {
            "reference": "Observation/Observation-703768",
            "display": "Temperature"
          },
          {
            "reference": "Observation/Observation-703769",
            "display": "Systolic Blood Pressure"
          },
          {
            "reference": "Observation/Observation-703770",
            "display": "Diastolic Blood Pressure"
          }
        ]
      },
      "request": {
        "method": "PUT",
        "url": "http://localhost:8080/cqf-ruler/baseDstu3/DiagnosticReport/DiagnosticReport-703764"
      }
    }
  ]
}