{
  "resourceType": "Bundle",
  "id": "Shawn-Conley-Owen-Jr-6509-Encounter-3784",
  "type": "transaction",
  "entry": [
    {
      "fullUrl": "http://localhost:8080/cqf-ruler/baseDstu3/Encounter/Encounter-3784",
      "resource": {
        "resourceType": "Encounter",
        "id": "Encounter-3784",
        "meta": {
          "profile": [
            "http://hl7.org/fhir/us/hedis/StructureDefinition/hedis-encounter"
          ]
        },
        "status": "finished",
        "class": {
          "system": "http://hl7.org/fhir/encounter-class",
          "code": "outpatient",
          "display": "Outpatient"
        },
        "subject": {
          "reference": "Patient/Patient-6509",
          "display": "Shawn Conley Owen Jr"
        },
        "participant": [
          {
            "period": {
              "start": "2014-05-09T00:00:00-04:00",
              "end": "2014-05-09T00:00:00-04:00"
            },
            "individual": {
              "reference": "Practitioner/Practitioner-2526",
              "display": "James Woodward Wilkins MD"
            }
          }
        ],
        "period": {
          "start": "2014-05-09T00:00:00-04:00",
          "end": "2014-05-09T00:00:00-04:00"
        },
        "location": [
          {
            "location": {
              "reference": "Location/Location-1105",
              "display": "Bayside Medical Group"
            }
          }
        ],
        "serviceProvider": {
          "reference": "Organization/Organization-1105",
          "display": "Bayside Medical Group"
        }
      },
      "request": {
        "method": "PUT",
        "url": "http://localhost:8080/cqf-ruler/baseDstu3/Encounter/Encounter-3784"
      }
    },
    {
      "fullUrl": "http://localhost:8080/cqf-ruler/baseDstu3/Immunization/Immunization-574019",
      "resource": {
        "resourceType": "Immunization",
        "id": "Immunization-574019",
        "status": "completed",
        "notGiven": false,
        "vaccineCode": {
          "coding": [
            {
              "system": "http://hl7.org/fhir/sid/cvx",
              "code": "140",
              "display": "Influenza, seasonal, injectable, preservative free"
            }
          ]
        },
        "patient": {
          "reference": "Patient/Patient-6509",
          "display": "Shawn Conley Owen Jr"
        },
        "date": "2014-05-09T00:00:00-04:00",
        "primarySource": true,
        "location": {
          "reference": "Location/Location-1105",
          "display": "Bayside Medical Group"
        },
        "practitioner": [
          {
            "actor": {
              "reference": "Practitioner/Practitioner-2526",
              "display": "James Woodward Wilkins MD"
            }
          }
        ]
      },
      "request": {
        "method": "PUT",
        "url": "http://localhost:8080/cqf-ruler/baseDstu3/Immunization/Immunization-574019"
      }
    },
    {
      "fullUrl": "http://localhost:8080/cqf-ruler/baseDstu3/Procedure/Procedure-602640",
      "resource": {
        "resourceType": "Procedure",
        "id": "Procedure-602640",
        "meta": {
          "profile": [
            "http://hl7.org/fhir/us/hedis/StructureDefinition/hedis-procedure"
          ]
        },
        "status": "completed",
        "code": {
          "coding": [
            {
              "system": "http://snomed.info/sct",
              "code": "713127001",
              "display": "Assessment of alcohol use"
            }
          ]
        },
        "subject": {
          "reference": "Patient/Patient-6509",
          "display": "Shawn Conley Owen Jr"
        },
        "context": {
          "reference": "Encounter/Encounter-3784",
          "display": "Wellness Visit"
        },
        "performedPeriod": {
          "start": "2014-05-09T00:00:00-04:00",
          "end": "2014-05-09T00:00:00-04:00"
        },
        "performer": [
          {
            "actor": {
              "reference": "Practitioner/Practitioner-2526",
              "display": "James Woodward Wilkins MD"
            }
          }
        ],
        "location": {
          "reference": "Location/Location-1105",
          "display": "Bayside Medical Group"
        }
      },
      "request": {
        "method": "PUT",
        "url": "http://localhost:8080/cqf-ruler/baseDstu3/Procedure/Procedure-602640"
      }
    },
    {
      "fullUrl": "http://localhost:8080/cqf-ruler/baseDstu3/Observation/Observation-602641",
      "resource": {
        "resourceType": "Observation",
        "id": "Observation-602641",
        "meta": {
          "profile": [
            "http://hl7.org/fhir/us/hedis/StructureDefinition/hedis-observation"
          ]
        },
        "status": "final",
        "code": {
          "coding": [
            {
              "system": "http://snomed.info/sct",
              "code": "704198001",
              "display": "Denies alcohol use (finding)"
            }
          ]
        },
        "subject": {
          "reference": "Patient/Patient-6509",
          "display": "Shawn Conley Owen Jr"
        },
        "context": {
          "reference": "Encounter/Encounter-3784",
          "display": "Wellness Visit"
        },
        "effectiveDateTime": "2014-05-09T00:00:00-04:00",
        "performer": [
          {
            "reference": "Practitioner/Practitioner-2526",
            "display": "James Woodward Wilkins MD"
          }
        ],
        "valueQuantity": {
          "value": 0.0,
          "unit": "drinks/day"
        }
      },
      "request": {
        "method": "PUT",
        "url": "http://localhost:8080/cqf-ruler/baseDstu3/Observation/Observation-602641"
      }
    },
    {
      "fullUrl": "http://localhost:8080/cqf-ruler/baseDstu3/Observation/Observation-602642",
      "resource": {
        "resourceType": "Observation",
        "id": "Observation-602642",
        "meta": {
          "profile": [
            "http://hl7.org/fhir/us/hedis/StructureDefinition/hedis-observation"
          ]
        },
        "status": "final",
        "code": {
          "coding": [
            {
              "system": "http://loinc.org",
              "code": "8480-6",
              "display": "Systolic blood pressure"
            }
          ]
        },
        "subject": {
          "reference": "Patient/Patient-6509",
          "display": "Shawn Conley Owen Jr"
        },
        "context": {
          "reference": "Encounter/Encounter-3784",
          "display": "Wellness Visit"
        },
        "effectiveDateTime": "2014-05-09T00:00:00-04:00",
        "performer": [
          {
            "reference": "Practitioner/Practitioner-2526",
            "display": "James Woodward Wilkins MD"
          }
        ],
        "valueQuantity": {
          "value": 155.6034867481352,
          "unit": "mmHg"
        }
      },
      "request": {
        "method": "PUT",
        "url": "http://localhost:8080/cqf-ruler/baseDstu3/Observation/Observation-602642"
      }
    },
    {
      "fullUrl": "http://localhost:8080/cqf-ruler/baseDstu3/Observation/Observation-602643",
      "resource": {
        "resourceType": "Observation",
        "id": "Observation-602643",
        "meta": {
          "profile": [
            "http://hl7.org/fhir/us/hedis/StructureDefinition/hedis-observation"
          ]
        },
        "status": "final",
        "code": {
          "coding": [
            {
              "system": "http://loinc.org",
              "code": "8462-4",
              "display": "Diastolic blood pressure"
            }
          ]
        },
        "subject": {
          "reference": "Patient/Patient-6509",
          "display": "Shawn Conley Owen Jr"
        },
        "context": {
          "reference": "Encounter/Encounter-3784",
          "display": "Wellness Visit"
        },
        "effectiveDateTime": "2014-05-09T00:00:00-04:00",
        "performer": [
          {
            "reference": "Practitioner/Practitioner-2526",
            "display": "James Woodward Wilkins MD"
          }
        ],
        "valueQuantity": {
          "value": 89.17281639301297,
          "unit": "mmHg"
        }
      },
      "request": {
        "method": "PUT",
        "url": "http://localhost:8080/cqf-ruler/baseDstu3/Observation/Observation-602643"
      }
    },
    {
      "fullUrl": "http://localhost:8080/cqf-ruler/baseDstu3/Condition/Condition-602644",
      "resource": {
        "resourceType": "Condition",
        "id": "Condition-602644",
        "meta": {
          "profile": [
            "http://hl7.org/fhir/us/hedis/StructureDefinition/hedis-condition"
          ]
        },
        "clinicalStatus": "active",
        "verificationStatus": "confirmed",
        "code": {
          "coding": [
            {
              "system": "http://snomed.info/sct",
              "code": "78975002",
              "display": "Malignant essential hypertension"
            }
          ]
        },
        "subject": {
          "reference": "Patient/Patient-6509",
          "display": "Shawn Conley Owen Jr"
        },
        "context": {
          "reference": "Encounter/Encounter-3784",
          "display": "Wellness Visit"
        },
        "onsetDateTime": "2014-05-09T00:00:00-04:00",
        "assertedDate": "2014-05-09T00:00:00-04:00",
        "asserter": {
          "reference": "Practitioner/Practitioner-2526",
          "display": "James Woodward Wilkins MD"
        }
      },
      "request": {
        "method": "PUT",
        "url": "http://localhost:8080/cqf-ruler/baseDstu3/Condition/Condition-602644"
      }
    },
    {
      "fullUrl": "http://localhost:8080/cqf-ruler/baseDstu3/Procedure/Procedure-602645",
      "resource": {
        "resourceType": "Procedure",
        "id": "Procedure-602645",
        "meta": {
          "profile": [
            "http://hl7.org/fhir/us/hedis/StructureDefinition/hedis-procedure"
          ]
        },
        "status": "completed",
        "code": {
          "coding": [
            {
              "system": "http://www.ama-assn.org/go/cpt",
              "code": "82270",
              "display": "Blood, occult, by peroxidase activity (eg, guaiac), qualitative; feces, consecutive collected specimens with single determination, for colorectal neoplasm screening (ie, patient was provided 3 cards or single triple card for consecutive collection)"
            }
          ]
        },
        "subject": {
          "reference": "Patient/Patient-6509",
          "display": "Shawn Conley Owen Jr"
        },
        "context": {
          "reference": "Encounter/Encounter-3784",
          "display": "Wellness Visit"
        },
        "performedPeriod": {
          "start": "2014-05-09T00:00:00-04:00",
          "end": "2014-05-09T00:00:00-04:00"
        },
        "performer": [
          {
            "actor": {
              "reference": "Practitioner/Practitioner-2526",
              "display": "James Woodward Wilkins MD"
            }
          }
        ],
        "location": {
          "reference": "Location/Location-1105",
          "display": "Bayside Medical Group"
        }
      },
      "request": {
        "method": "PUT",
        "url": "http://localhost:8080/cqf-ruler/baseDstu3/Procedure/Procedure-602645"
      }
    },
    {
      "fullUrl": "http://localhost:8080/cqf-ruler/baseDstu3/Observation/Observation-602646",
      "resource": {
        "resourceType": "Observation",
        "id": "Observation-602646",
        "meta": {
          "profile": [
            "http://hl7.org/fhir/us/hedis/StructureDefinition/hedis-observation"
          ]
        },
        "status": "final",
        "code": {
          "coding": [
            {
              "system": "http://www.ama-assn.org/go/cpt",
              "code": "82270",
              "display": "Blood, occult, by peroxidase activity (eg, guaiac), qualitative; feces, consecutive collected specimens with single determination, for colorectal neoplasm screening (ie, patient was provided 3 cards or single triple card for consecutive collection)"
            }
          ]
        },
        "subject": {
          "reference": "Patient/Patient-6509",
          "display": "Shawn Conley Owen Jr"
        },
        "context": {
          "reference": "Encounter/Encounter-3784",
          "display": "Wellness Visit"
        },
        "effectiveDateTime": "2014-05-09T00:00:00-04:00",
        "performer": [
          {
            "reference": "Practitioner/Practitioner-2526",
            "display": "James Woodward Wilkins MD"
          }
        ],
        "valueString": "NEGATIVE"
      },
      "request": {
        "method": "PUT",
        "url": "http://localhost:8080/cqf-ruler/baseDstu3/Observation/Observation-602646"
      }
    },
    {
      "fullUrl": "http://localhost:8080/cqf-ruler/baseDstu3/Observation/Observation-602647",
      "resource": {
        "resourceType": "Observation",
        "id": "Observation-602647",
        "meta": {
          "profile": [
            "http://hl7.org/fhir/us/hedis/StructureDefinition/hedis-observation"
          ]
        },
        "status": "final",
        "code": {
          "coding": [
            {
              "system": "http://loinc.org",
              "code": "8302-2",
              "display": "Body Height"
            }
          ]
        },
        "subject": {
          "reference": "Patient/Patient-6509",
          "display": "Shawn Conley Owen Jr"
        },
        "context": {
          "reference": "Encounter/Encounter-3784",
          "display": "Wellness Visit"
        },
        "effectiveDateTime": "2014-05-09T00:00:00-04:00",
        "performer": [
          {
            "reference": "Practitioner/Practitioner-2526",
            "display": "James Woodward Wilkins MD"
          }
        ],
        "valueQuantity": {
          "value": 176.8,
          "unit": "cm"
        }
      },
      "request": {
        "method": "PUT",
        "url": "http://localhost:8080/cqf-ruler/baseDstu3/Observation/Observation-602647"
      }
    },
    {
      "fullUrl": "http://localhost:8080/cqf-ruler/baseDstu3/Observation/Observation-602648",
      "resource": {
        "resourceType": "Observation",
        "id": "Observation-602648",
        "meta": {
          "profile": [
            "http://hl7.org/fhir/us/hedis/StructureDefinition/hedis-observation"
          ]
        },
        "status": "final",
        "code": {
          "coding": [
            {
              "system": "http://loinc.org",
              "code": "29463-7",
              "display": "Body Weight"
            }
          ]
        },
        "subject": {
          "reference": "Patient/Patient-6509",
          "display": "Shawn Conley Owen Jr"
        },
        "context": {
          "reference": "Encounter/Encounter-3784",
          "display": "Wellness Visit"
        },
        "effectiveDateTime": "2014-05-09T00:00:00-04:00",
        "performer": [
          {
            "reference": "Practitioner/Practitioner-2526",
            "display": "James Woodward Wilkins MD"
          }
        ],
        "valueQuantity": {
          "value": 91.52885093363922,
          "unit": "kg"
        }
      },
      "request": {
        "method": "PUT",
        "url": "http://localhost:8080/cqf-ruler/baseDstu3/Observation/Observation-602648"
      }
    },
    {
      "fullUrl": "http://localhost:8080/cqf-ruler/baseDstu3/Observation/Observation-602649",
      "resource": {
        "resourceType": "Observation",
        "id": "Observation-602649",
        "meta": {
          "profile": [
            "http://hl7.org/fhir/us/hedis/StructureDefinition/hedis-observation"
          ]
        },
        "status": "final",
        "code": {
          "coding": [
            {
              "system": "http://loinc.org",
              "code": "39156-5",
              "display": "Body Mass Index"
            }
          ]
        },
        "subject": {
          "reference": "Patient/Patient-6509",
          "display": "Shawn Conley Owen Jr"
        },
        "context": {
          "reference": "Encounter/Encounter-3784",
          "display": "Wellness Visit"
        },
        "effectiveDateTime": "2014-05-09T00:00:00-04:00",
        "performer": [
          {
            "reference": "Practitioner/Practitioner-2526",
            "display": "James Woodward Wilkins MD"
          }
        ],
        "valueQuantity": {
          "value": 29.28151134985182,
          "unit": "kg/m2"
        }
      },
      "request": {
        "method": "PUT",
        "url": "http://localhost:8080/cqf-ruler/baseDstu3/Observation/Observation-602649"
      }
    },
    {
      "fullUrl": "http://localhost:8080/cqf-ruler/baseDstu3/Observation/Observation-602652",
      "resource": {
        "resourceType": "Observation",
        "id": "Observation-602652",
        "meta": {
          "profile": [
            "http://hl7.org/fhir/us/hedis/StructureDefinition/hedis-observation"
          ]
        },
        "status": "final",
        "code": {
          "coding": [
            {
              "system": "http://loinc.org",
              "code": "55284-4",
              "display": "Blood Pressure"
            }
          ]
        },
        "subject": {
          "reference": "Patient/Patient-6509",
          "display": "Shawn Conley Owen Jr"
        },
        "context": {
          "reference": "Encounter/Encounter-3784",
          "display": "Wellness Visit"
        },
        "effectiveDateTime": "2014-05-09T00:00:00-04:00",
        "valueQuantity": {
          "value": 89.17281639301297,
          "unit": "mmHg"
        },
        "component": [
          {
            "code": {
              "coding": [
                {
                  "system": "http://loinc.org",
                  "code": "8480-6",
                  "display": "Systolic Blood Pressure"
                }
              ]
            }
          },
          {
            "code": {
              "coding": [
                {
                  "system": "http://loinc.org",
                  "code": "8462-4",
                  "display": "Diastolic Blood Pressure"
                }
              ]
            }
          }
        ]
      },
      "request": {
        "method": "PUT",
        "url": "http://localhost:8080/cqf-ruler/baseDstu3/Observation/Observation-602652"
      }
    },
    {
      "fullUrl": "http://localhost:8080/cqf-ruler/baseDstu3/Observation/Observation-602653",
      "resource": {
        "resourceType": "Observation",
        "id": "Observation-602653",
        "meta": {
          "profile": [
            "http://hl7.org/fhir/us/hedis/StructureDefinition/hedis-observation"
          ]
        },
        "status": "final",
        "code": {
          "coding": [
            {
              "system": "http://loinc.org",
              "code": "4548-4",
              "display": "Hemoglobin A1c/Hemoglobin.total in Blood"
            }
          ]
        },
        "subject": {
          "reference": "Patient/Patient-6509",
          "display": "Shawn Conley Owen Jr"
        },
        "context": {
          "reference": "Encounter/Encounter-3784",
          "display": "Wellness Visit"
        },
        "effectiveDateTime": "2014-05-09T00:00:00-04:00",
        "performer": [
          {
            "reference": "Practitioner/Practitioner-2526",
            "display": "James Woodward Wilkins MD"
          }
        ],
        "valueQuantity": {
          "value": 5.492895509376308,
          "unit": "%"
        }
      },
      "request": {
        "method": "PUT",
        "url": "http://localhost:8080/cqf-ruler/baseDstu3/Observation/Observation-602653"
      }
    },
    {
      "fullUrl": "http://localhost:8080/cqf-ruler/baseDstu3/Observation/Observation-602654",
      "resource": {
        "resourceType": "Observation",
        "id": "Observation-602654",
        "meta": {
          "profile": [
            "http://hl7.org/fhir/us/hedis/StructureDefinition/hedis-observation"
          ]
        },
        "status": "final",
        "code": {
          "coding": [
            {
              "system": "http://loinc.org",
              "code": "2339-0",
              "display": "Glucose"
            }
          ]
        },
        "subject": {
          "reference": "Patient/Patient-6509",
          "display": "Shawn Conley Owen Jr"
        },
        "context": {
          "reference": "Encounter/Encounter-3784",
          "display": "Wellness Visit"
        },
        "effectiveDateTime": "2014-05-09T00:00:00-04:00",
        "performer": [
          {
            "reference": "Practitioner/Practitioner-2526",
            "display": "James Woodward Wilkins MD"
          }
        ],
        "valueQuantity": {
          "value": 76.38676790758666,
          "unit": "mg/dL"
        }
      },
      "request": {
        "method": "PUT",
        "url": "http://localhost:8080/cqf-ruler/baseDstu3/Observation/Observation-602654"
      }
    },
    {
      "fullUrl": "http://localhost:8080/cqf-ruler/baseDstu3/Observation/Observation-602655",
      "resource": {
        "resourceType": "Observation",
        "id": "Observation-602655",
        "meta": {
          "profile": [
            "http://hl7.org/fhir/us/hedis/StructureDefinition/hedis-observation"
          ]
        },
        "status": "final",
        "code": {
          "coding": [
            {
              "system": "http://loinc.org",
              "code": "6299-2",
              "display": "Urea Nitrogen"
            }
          ]
        },
        "subject": {
          "reference": "Patient/Patient-6509",
          "display": "Shawn Conley Owen Jr"
        },
        "context": {
          "reference": "Encounter/Encounter-3784",
          "display": "Wellness Visit"
        },
        "effectiveDateTime": "2014-05-09T00:00:00-04:00",
        "performer": [
          {
            "reference": "Practitioner/Practitioner-2526",
            "display": "James Woodward Wilkins MD"
          }
        ],
        "valueQuantity": {
          "value": 12.213085191238239,
          "unit": "mg/dL"
        }
      },
      "request": {
        "method": "PUT",
        "url": "http://localhost:8080/cqf-ruler/baseDstu3/Observation/Observation-602655"
      }
    },
    {
      "fullUrl": "http://localhost:8080/cqf-ruler/baseDstu3/Observation/Observation-602656",
      "resource": {
        "resourceType": "Observation",
        "id": "Observation-602656",
        "meta": {
          "profile": [
            "http://hl7.org/fhir/us/hedis/StructureDefinition/hedis-observation"
          ]
        },
        "status": "final",
        "code": {
          "coding": [
            {
              "system": "http://loinc.org",
              "code": "38483-4",
              "display": "Creatinine"
            }
          ]
        },
        "subject": {
          "reference": "Patient/Patient-6509",
          "display": "Shawn Conley Owen Jr"
        },
        "context": {
          "reference": "Encounter/Encounter-3784",
          "display": "Wellness Visit"
        },
        "effectiveDateTime": "2014-05-09T00:00:00-04:00",
        "performer": [
          {
            "reference": "Practitioner/Practitioner-2526",
            "display": "James Woodward Wilkins MD"
          }
        ],
        "valueQuantity": {
          "value": -0.30762169470752276,
          "unit": "mg/dL"
        }
      },
      "request": {
        "method": "PUT",
        "url": "http://localhost:8080/cqf-ruler/baseDstu3/Observation/Observation-602656"
      }
    },
    {
      "fullUrl": "http://localhost:8080/cqf-ruler/baseDstu3/Observation/Observation-602657",
      "resource": {
        "resourceType": "Observation",
        "id": "Observation-602657",
        "meta": {
          "profile": [
            "http://hl7.org/fhir/us/hedis/StructureDefinition/hedis-observation"
          ]
        },
        "status": "final",
        "code": {
          "coding": [
            {
              "system": "http://loinc.org",
              "code": "49765-1",
              "display": "Calcium"
            }
          ]
        },
        "subject": {
          "reference": "Patient/Patient-6509",
          "display": "Shawn Conley Owen Jr"
        },
        "context": {
          "reference": "Encounter/Encounter-3784",
          "display": "Wellness Visit"
        },
        "effectiveDateTime": "2014-05-09T00:00:00-04:00",
        "performer": [
          {
            "reference": "Practitioner/Practitioner-2526",
            "display": "James Woodward Wilkins MD"
          }
        ],
        "valueQuantity": {
          "value": 3.011352115944905,
          "unit": "mmol/L"
        }
      },
      "request": {
        "method": "PUT",
        "url": "http://localhost:8080/cqf-ruler/baseDstu3/Observation/Observation-602657"
      }
    },
    {
      "fullUrl": "http://localhost:8080/cqf-ruler/baseDstu3/Observation/Observation-602658",
      "resource": {
        "resourceType": "Observation",
        "id": "Observation-602658",
        "meta": {
          "profile": [
            "http://hl7.org/fhir/us/hedis/StructureDefinition/hedis-observation"
          ]
        },
        "status": "final",
        "code": {
          "coding": [
            {
              "system": "http://loinc.org",
              "code": "2947-0",
              "display": "Sodium"
            }
          ]
        },
        "subject": {
          "reference": "Patient/Patient-6509",
          "display": "Shawn Conley Owen Jr"
        },
        "context": {
          "reference": "Encounter/Encounter-3784",
          "display": "Wellness Visit"
        },
        "effectiveDateTime": "2014-05-09T00:00:00-04:00",
        "performer": [
          {
            "reference": "Practitioner/Practitioner-2526",
            "display": "James Woodward Wilkins MD"
          }
        ],
        "valueQuantity": {
          "value": 142.6620137263401,
          "unit": "mmol/L"
        }
      },
      "request": {
        "method": "PUT",
        "url": "http://localhost:8080/cqf-ruler/baseDstu3/Observation/Observation-602658"
      }
    },
    {
      "fullUrl": "http://localhost:8080/cqf-ruler/baseDstu3/Observation/Observation-602659",
      "resource": {
        "resourceType": "Observation",
        "id": "Observation-602659",
        "meta": {
          "profile": [
            "http://hl7.org/fhir/us/hedis/StructureDefinition/hedis-observation"
          ]
        },
        "status": "final",
        "code": {
          "coding": [
            {
              "system": "http://loinc.org",
              "code": "6298-4",
              "display": "Potassium"
            }
          ]
        },
        "subject": {
          "reference": "Patient/Patient-6509",
          "display": "Shawn Conley Owen Jr"
        },
        "context": {
          "reference": "Encounter/Encounter-3784",
          "display": "Wellness Visit"
        },
        "effectiveDateTime": "2014-05-09T00:00:00-04:00",
        "performer": [
          {
            "reference": "Practitioner/Practitioner-2526",
            "display": "James Woodward Wilkins MD"
          }
        ],
        "valueQuantity": {
          "value": 6.131765367609221,
          "unit": "mmol/L"
        }
      },
      "request": {
        "method": "PUT",
        "url": "http://localhost:8080/cqf-ruler/baseDstu3/Observation/Observation-602659"
      }
    },
    {
      "fullUrl": "http://localhost:8080/cqf-ruler/baseDstu3/Observation/Observation-602660",
      "resource": {
        "resourceType": "Observation",
        "id": "Observation-602660",
        "meta": {
          "profile": [
            "http://hl7.org/fhir/us/hedis/StructureDefinition/hedis-observation"
          ]
        },
        "status": "final",
        "code": {
          "coding": [
            {
              "system": "http://loinc.org",
              "code": "2069-3",
              "display": "Chloride"
            }
          ]
        },
        "subject": {
          "reference": "Patient/Patient-6509",
          "display": "Shawn Conley Owen Jr"
        },
        "context": {
          "reference": "Encounter/Encounter-3784",
          "display": "Wellness Visit"
        },
        "effectiveDateTime": "2014-05-09T00:00:00-04:00",
        "performer": [
          {
            "reference": "Practitioner/Practitioner-2526",
            "display": "James Woodward Wilkins MD"
          }
        ],
        "valueQuantity": {
          "value": 109.07340190400966,
          "unit": "mmol/L"
        }
      },
      "request": {
        "method": "PUT",
        "url": "http://localhost:8080/cqf-ruler/baseDstu3/Observation/Observation-602660"
      }
    },
    {
      "fullUrl": "http://localhost:8080/cqf-ruler/baseDstu3/Observation/Observation-602661",
      "resource": {
        "resourceType": "Observation",
        "id": "Observation-602661",
        "meta": {
          "profile": [
            "http://hl7.org/fhir/us/hedis/StructureDefinition/hedis-observation"
          ]
        },
        "status": "final",
        "code": {
          "coding": [
            {
              "system": "http://loinc.org",
              "code": "20565-8",
              "display": "Carbon Dioxide"
            }
          ]
        },
        "subject": {
          "reference": "Patient/Patient-6509",
          "display": "Shawn Conley Owen Jr"
        },
        "context": {
          "reference": "Encounter/Encounter-3784",
          "display": "Wellness Visit"
        },
        "effectiveDateTime": "2014-05-09T00:00:00-04:00",
        "performer": [
          {
            "reference": "Practitioner/Practitioner-2526",
            "display": "James Woodward Wilkins MD"
          }
        ],
        "valueQuantity": {
          "value": 22.88145434155394,
          "unit": "mmol/L"
        }
      },
      "request": {
        "method": "PUT",
        "url": "http://localhost:8080/cqf-ruler/baseDstu3/Observation/Observation-602661"
      }
    },
    {
      "fullUrl": "http://localhost:8080/cqf-ruler/baseDstu3/DiagnosticReport/DiagnosticReport-602662",
      "resource": {
        "resourceType": "DiagnosticReport",
        "id": "DiagnosticReport-602662",
        "meta": {
          "profile": [
            "http://hl7.org/fhir/us/hedis/StructureDefinition/hedis-diagnosticreport"
          ]
        },
        "status": "final",
        "category": {
          "coding": [
            {
              "system": "http://hl7.org/fhir/ValueSet/diagnostic-service-sections",
              "code": "LAB",
              "display": "Laboratory"
            }
          ]
        },
        "code": {
          "coding": [
            {
              "system": "http://loinc.org",
              "code": "51990-0",
              "display": "Basic Metabolic Panel"
            }
          ]
        },
        "subject": {
          "reference": "Patient/Patient-6509",
          "display": "Shawn Conley Owen Jr"
        },
        "context": {
          "reference": "Encounter/Encounter-3784",
          "display": "Wellness Visit"
        },
        "effectivePeriod": {
          "start": "2014-05-09T00:00:00-04:00",
          "end": "2014-05-09T00:00:00-04:00"
        },
        "issued": "2014-05-09T00:00:00.000-04:00",
        "result": [
          {
            "reference": "Observation/Observation-602654",
            "display": "Record_Glucose"
          },
          {
            "reference": "Observation/Observation-602655",
            "display": "Record_UreaNitrogen"
          },
          {
            "reference": "Observation/Observation-602656",
            "display": "Record_Creatinine"
          },
          {
            "reference": "Observation/Observation-602657",
            "display": "Record_Calcium"
          },
          {
            "reference": "Observation/Observation-602658",
            "display": "Record_Sodium"
          },
          {
            "reference": "Observation/Observation-602659",
            "display": "Record_Potassium"
          },
          {
            "reference": "Observation/Observation-602660",
            "display": "Record_Chloride"
          },
          {
            "reference": "Observation/Observation-602661",
            "display": "Record_CO2"
          }
        ]
      },
      "request": {
        "method": "PUT",
        "url": "http://localhost:8080/cqf-ruler/baseDstu3/DiagnosticReport/DiagnosticReport-602662"
      }
    },
    {
      "fullUrl": "http://localhost:8080/cqf-ruler/baseDstu3/Observation/Observation-602663",
      "resource": {
        "resourceType": "Observation",
        "id": "Observation-602663",
        "meta": {
          "profile": [
            "http://hl7.org/fhir/us/hedis/StructureDefinition/hedis-observation"
          ]
        },
        "status": "final",
        "code": {
          "coding": [
            {
              "system": "http://loinc.org",
              "code": "2093-3",
              "display": "Total Cholesterol"
            }
          ]
        },
        "subject": {
          "reference": "Patient/Patient-6509",
          "display": "Shawn Conley Owen Jr"
        },
        "context": {
          "reference": "Encounter/Encounter-3784",
          "display": "Wellness Visit"
        },
        "effectiveDateTime": "2014-05-09T00:00:00-04:00",
        "performer": [
          {
            "reference": "Practitioner/Practitioner-2526",
            "display": "James Woodward Wilkins MD"
          }
        ],
        "valueQuantity": {
          "value": 120.08426308065481,
          "unit": "mg/dL"
        }
      },
      "request": {
        "method": "PUT",
        "url": "http://localhost:8080/cqf-ruler/baseDstu3/Observation/Observation-602663"
      }
    },
    {
      "fullUrl": "http://localhost:8080/cqf-ruler/baseDstu3/Observation/Observation-602664",
      "resource": {
        "resourceType": "Observation",
        "id": "Observation-602664",
        "meta": {
          "profile": [
            "http://hl7.org/fhir/us/hedis/StructureDefinition/hedis-observation"
          ]
        },
        "status": "final",
        "code": {
          "coding": [
            {
              "system": "http://loinc.org",
              "code": "2571-8",
              "display": "Triglycerides"
            }
          ]
        },
        "subject": {
          "reference": "Patient/Patient-6509",
          "display": "Shawn Conley Owen Jr"
        },
        "context": {
          "reference": "Encounter/Encounter-3784",
          "display": "Wellness Visit"
        },
        "effectiveDateTime": "2014-05-09T00:00:00-04:00",
        "performer": [
          {
            "reference": "Practitioner/Practitioner-2526",
            "display": "James Woodward Wilkins MD"
          }
        ],
        "valueQuantity": {
          "value": 46.52617986918509,
          "unit": "mg/dL"
        }
      },
      "request": {
        "method": "PUT",
        "url": "http://localhost:8080/cqf-ruler/baseDstu3/Observation/Observation-602664"
      }
    },
    {
      "fullUrl": "http://localhost:8080/cqf-ruler/baseDstu3/Observation/Observation-602665",
      "resource": {
        "resourceType": "Observation",
        "id": "Observation-602665",
        "meta": {
          "profile": [
            "http://hl7.org/fhir/us/hedis/StructureDefinition/hedis-observation"
          ]
        },
        "status": "final",
        "code": {
          "coding": [
            {
              "system": "http://loinc.org",
              "code": "18262-6",
              "display": "Low Density Lipoprotein Cholesterol"
            }
          ]
        },
        "subject": {
          "reference": "Patient/Patient-6509",
          "display": "Shawn Conley Owen Jr"
        },
        "context": {
          "reference": "Encounter/Encounter-3784",
          "display": "Wellness Visit"
        },
        "effectiveDateTime": "2014-05-09T00:00:00-04:00",
        "performer": [
          {
            "reference": "Practitioner/Practitioner-2526",
            "display": "James Woodward Wilkins MD"
          }
        ],
        "valueQuantity": {
          "value": 67.76099195857334,
          "unit": "mg/dL"
        }
      },
      "request": {
        "method": "PUT",
        "url": "http://localhost:8080/cqf-ruler/baseDstu3/Observation/Observation-602665"
      }
    },
    {
      "fullUrl": "http://localhost:8080/cqf-ruler/baseDstu3/Observation/Observation-602666",
      "resource": {
        "resourceType": "Observation",
        "id": "Observation-602666",
        "meta": {
          "profile": [
            "http://hl7.org/fhir/us/hedis/StructureDefinition/hedis-observation"
          ]
        },
        "status": "final",
        "code": {
          "coding": [
            {
              "system": "http://loinc.org",
              "code": "2085-9",
              "display": "High Density Lipoprotein Cholesterol"
            }
          ]
        },
        "subject": {
          "reference": "Patient/Patient-6509",
          "display": "Shawn Conley Owen Jr"
        },
        "context": {
          "reference": "Encounter/Encounter-3784",
          "display": "Wellness Visit"
        },
        "effectiveDateTime": "2014-05-09T00:00:00-04:00",
        "performer": [
          {
            "reference": "Practitioner/Practitioner-2526",
            "display": "James Woodward Wilkins MD"
          }
        ],
        "valueQuantity": {
          "value": 43.01803514824445,
          "unit": "mg/dL"
        }
      },
      "request": {
        "method": "PUT",
        "url": "http://localhost:8080/cqf-ruler/baseDstu3/Observation/Observation-602666"
      }
    },
    {
      "fullUrl": "http://localhost:8080/cqf-ruler/baseDstu3/DiagnosticReport/DiagnosticReport-602667",
      "resource": {
        "resourceType": "DiagnosticReport",
        "id": "DiagnosticReport-602667",
        "meta": {
          "profile": [
            "http://hl7.org/fhir/us/hedis/StructureDefinition/hedis-diagnosticreport"
          ]
        },
        "status": "final",
        "category": {
          "coding": [
            {
              "system": "http://hl7.org/fhir/ValueSet/diagnostic-service-sections",
              "code": "LAB",
              "display": "Laboratory"
            }
          ]
        },
        "code": {
          "coding": [
            {
              "system": "http://loinc.org",
              "code": "57698-3",
              "display": "Lipid Panel"
            }
          ]
        },
        "subject": {
          "reference": "Patient/Patient-6509",
          "display": "Shawn Conley Owen Jr"
        },
        "context": {
          "reference": "Encounter/Encounter-3784",
          "display": "Wellness Visit"
        },
        "effectivePeriod": {
          "start": "2014-05-09T00:00:00-04:00",
          "end": "2014-05-09T00:00:00-04:00"
        },
        "issued": "2014-05-09T00:00:00.000-04:00",
        "result": [
          {
            "reference": "Observation/Observation-602663",
            "display": "Record_Cholesterol"
          },
          {
            "reference": "Observation/Observation-602664",
            "display": "Record_Triglycerides"
          },
          {
            "reference": "Observation/Observation-602665",
            "display": "Record_LDL"
          },
          {
            "reference": "Observation/Observation-602666",
            "display": "Record_HDL"
          }
        ]
      },
      "request": {
        "method": "PUT",
        "url": "http://localhost:8080/cqf-ruler/baseDstu3/DiagnosticReport/DiagnosticReport-602667"
      }
    },
    {
      "fullUrl": "http://localhost:8080/cqf-ruler/baseDstu3/Observation/Observation-602669",
      "resource": {
        "resourceType": "Observation",
        "id": "Observation-602669",
        "status": "final",
        "code": {
          "coding": [
            {
              "system": "http://loinc.org",
              "code": "8302-2",
              "display": "Height"
            }
          ]
        },
        "subject": {
          "reference": "Patient/Patient-6509",
          "display": "Shawn Conley Owen Jr"
        },
        "context": {
          "reference": "Encounter/Encounter-3784",
          "display": "Wellness Visit"
        },
        "effectiveDateTime": "2014-05-09T00:00:00-04:00",
        "performer": [
          {
            "reference": "Practitioner/Practitioner-2526",
            "display": "James Woodward Wilkins MD"
          }
        ],
        "valueQuantity": {
          "value": 176.8,
          "unit": "cm"
        }
      },
      "request": {
        "method": "PUT",
        "url": "http://localhost:8080/cqf-ruler/baseDstu3/Observation/Observation-602669"
      }
    },
    {
      "fullUrl": "http://localhost:8080/cqf-ruler/baseDstu3/Observation/Observation-602670",
      "resource": {
        "resourceType": "Observation",
        "id": "Observation-602670",
        "status": "final",
        "code": {
          "coding": [
            {
              "system": "http://loinc.org",
              "code": "29463-7",
              "display": "Weight"
            }
          ]
        },
        "subject": {
          "reference": "Patient/Patient-6509",
          "display": "Shawn Conley Owen Jr"
        },
        "context": {
          "reference": "Encounter/Encounter-3784",
          "display": "Wellness Visit"
        },
        "effectiveDateTime": "2014-05-09T00:00:00-04:00",
        "performer": [
          {
            "reference": "Practitioner/Practitioner-2526",
            "display": "James Woodward Wilkins MD"
          }
        ],
        "valueQuantity": {
          "value": 91.52885093363922,
          "unit": "kg"
        }
      },
      "request": {
        "method": "PUT",
        "url": "http://localhost:8080/cqf-ruler/baseDstu3/Observation/Observation-602670"
      }
    },
    {
      "fullUrl": "http://localhost:8080/cqf-ruler/baseDstu3/Observation/Observation-602671",
      "resource": {
        "resourceType": "Observation",
        "id": "Observation-602671",
        "status": "final",
        "code": {
          "coding": [
            {
              "system": "http://loinc.org",
              "code": "39156-5",
              "display": "BMI"
            }
          ]
        },
        "subject": {
          "reference": "Patient/Patient-6509",
          "display": "Shawn Conley Owen Jr"
        },
        "context": {
          "reference": "Encounter/Encounter-3784",
          "display": "Wellness Visit"
        },
        "effectiveDateTime": "2014-05-09T00:00:00-04:00",
        "performer": [
          {
            "reference": "Practitioner/Practitioner-2526",
            "display": "James Woodward Wilkins MD"
          }
        ],
        "valueQuantity": {
          "value": 29.28151134985182,
          "unit": "kg/m2"
        }
      },
      "request": {
        "method": "PUT",
        "url": "http://localhost:8080/cqf-ruler/baseDstu3/Observation/Observation-602671"
      }
    },
    {
      "fullUrl": "http://localhost:8080/cqf-ruler/baseDstu3/Observation/Observation-602672",
      "resource": {
        "resourceType": "Observation",
        "id": "Observation-602672",
        "status": "final",
        "code": {
          "coding": [
            {
              "system": "http://loinc.org",
              "code": "8310-5",
              "display": "Temperature"
            }
          ]
        },
        "subject": {
          "reference": "Patient/Patient-6509",
          "display": "Shawn Conley Owen Jr"
        },
        "context": {
          "reference": "Encounter/Encounter-3784",
          "display": "Wellness Visit"
        },
        "effectiveDateTime": "2014-05-09T00:00:00-04:00",
        "performer": [
          {
            "reference": "Practitioner/Practitioner-2526",
            "display": "James Woodward Wilkins MD"
          }
        ],
        "valueQuantity": {
          "value": 37.0,
          "unit": "C"
        }
      },
      "request": {
        "method": "PUT",
        "url": "http://localhost:8080/cqf-ruler/baseDstu3/Observation/Observation-602672"
      }
    },
    {
      "fullUrl": "http://localhost:8080/cqf-ruler/baseDstu3/Observation/Observation-602673",
      "resource": {
        "resourceType": "Observation",
        "id": "Observation-602673",
        "status": "final",
        "code": {
          "coding": [
            {
              "system": "http://loinc.org",
              "code": "8459-0",
              "display": "Systolic Blood Pressure"
            }
          ]
        },
        "subject": {
          "reference": "Patient/Patient-6509",
          "display": "Shawn Conley Owen Jr"
        },
        "context": {
          "reference": "Encounter/Encounter-3784",
          "display": "Wellness Visit"
        },
        "effectiveDateTime": "2014-05-09T00:00:00-04:00",
        "performer": [
          {
            "reference": "Practitioner/Practitioner-2526",
            "display": "James Woodward Wilkins MD"
          }
        ],
        "valueQuantity": {
          "value": 155.6034867481352,
          "unit": "mmHg"
        }
      },
      "request": {
        "method": "PUT",
        "url": "http://localhost:8080/cqf-ruler/baseDstu3/Observation/Observation-602673"
      }
    },
    {
      "fullUrl": "http://localhost:8080/cqf-ruler/baseDstu3/Observation/Observation-602674",
      "resource": {
        "resourceType": "Observation",
        "id": "Observation-602674",
        "status": "final",
        "code": {
          "coding": [
            {
              "system": "http://loinc.org",
              "code": "8453-3",
              "display": "Diastolic Blood Pressure"
            }
          ]
        },
        "subject": {
          "reference": "Patient/Patient-6509",
          "display": "Shawn Conley Owen Jr"
        },
        "context": {
          "reference": "Encounter/Encounter-3784",
          "display": "Wellness Visit"
        },
        "effectiveDateTime": "2014-05-09T00:00:00-04:00",
        "performer": [
          {
            "reference": "Practitioner/Practitioner-2526",
            "display": "James Woodward Wilkins MD"
          }
        ],
        "valueQuantity": {
          "value": 89.17281639301297,
          "unit": "mmHg"
        }
      },
      "request": {
        "method": "PUT",
        "url": "http://localhost:8080/cqf-ruler/baseDstu3/Observation/Observation-602674"
      }
    },
    {
      "fullUrl": "http://localhost:8080/cqf-ruler/baseDstu3/DiagnosticReport/DiagnosticReport-602668",
      "resource": {
        "resourceType": "DiagnosticReport",
        "id": "DiagnosticReport-602668",
        "meta": {
          "profile": [
            "http://hl7.org/fhir/us/hedis/StructureDefinition/hedis-diagnosticreport"
          ]
        },
        "status": "final",
        "category": {
          "coding": [
            {
              "system": "http://hl7.org/fhir/ValueSet/diagnostic-service-sections",
              "code": "LAB",
              "display": "Laboratory"
            }
          ]
        },
        "code": {
          "coding": [
            {
              "system": "http://loinc.org",
              "code": "8716-3",
              "display": "Vital Signs Panel"
            }
          ]
        },
        "subject": {
          "reference": "Patient/Patient-6509",
          "display": "Shawn Conley Owen Jr"
        },
        "context": {
          "reference": "Encounter/Encounter-3784",
          "display": "Wellness Visit"
        },
        "effectivePeriod": {
          "start": "2014-05-09T00:00:00-04:00",
          "end": "2014-05-09T00:00:00-04:00"
        },
        "issued": "2014-05-09T00:00:00.000-04:00",
        "result": [
          {
            "reference": "Observation/Observation-602669",
            "display": "Height"
          },
          {
            "reference": "Observation/Observation-602670",
            "display": "Weight"
          },
          {
            "reference": "Observation/Observation-602671",
            "display": "BMI"
          },
          {
            "reference": "Observation/Observation-602672",
            "display": "Temperature"
          },
          {
            "reference": "Observation/Observation-602673",
            "display": "Systolic Blood Pressure"
          },
          {
            "reference": "Observation/Observation-602674",
            "display": "Diastolic Blood Pressure"
          }
        ]
      },
      "request": {
        "method": "PUT",
        "url": "http://localhost:8080/cqf-ruler/baseDstu3/DiagnosticReport/DiagnosticReport-602668"
      }
    }
  ]
}