{
  "resourceType": "Bundle",
  "id": "Jerry Phillip Goodwall-1121-Encounter-2093",
  "type": "transaction",
  "entry": [
    {
      "fullUrl": "http://localhost:8080/cqf-ruler/baseDstu3/Encounter/Encounter-2093",
      "resource": {
        "resourceType": "Encounter",
        "id": "Encounter-2093",
        "status": "finished",
        "class": {
          "system": "http://hl7.org/fhir/encounter-class",
          "code": "outpatient",
          "display": "Inpatient"
        },
        "subject": {
          "reference": "Patient/Patient-1121",
          "display": "Jerry Phillip Goodwall"
        },
        "participant": [
          {
            "period": {
              "start": "2011-05-08T00:00:00-04:00",
              "end": "2011-05-08T00:00:00-04:00"
            },
            "individual": {
              "reference": "Practitioner/Practitioner-2517",
              "display": "Cathy Shannon Warner MD"
            }
          }
        ],
        "period": {
          "start": "2011-05-08T00:00:00-04:00",
          "end": "2011-05-08T00:00:00-04:00"
        },
        "location": [
          {
            "location": {
              "reference": "Location/Location-1102",
              "display": "Pediatric and Adult Medicine"
            }
          }
        ],
        "serviceProvider": {
          "reference": "Organization/Organization-1102",
          "display": "Pediatric and Adult Medicine"
        }
      },
      "request": {
        "method": "PUT",
        "url": "http://localhost:8080/cqf-ruler/baseDstu3/Encounter/Encounter-2093"
      }
    },
    {
      "fullUrl": "http://localhost:8080/cqf-ruler/baseDstu3/Immunization/Immunization-457129",
      "resource": {
        "resourceType": "Immunization",
        "id": "Immunization-457129",
        "status": "completed",
        "notGiven": false,
        "vaccineCode": {
          "coding": [
            {
              "system": "http://hl7.org/fhir/sid/cvx",
              "code": "140",
              "display": "Influenza, seasonal, injectable, preservative free"
            }
          ]
        },
        "patient": {
          "reference": "Patient/Patient-1121",
          "display": "Jerry Phillip Goodwall"
        },
        "date": "2011-05-08T00:00:00-04:00",
        "primarySource": true,
        "location": {
          "reference": "Location/Location-1102",
          "display": "Pediatric and Adult Medicine"
        },
        "practitioner": [
          {
            "actor": {
              "reference": "Practitioner/Practitioner-2517",
              "display": "Cathy Shannon Warner MD"
            }
          }
        ]
      },
      "request": {
        "method": "PUT",
        "url": "http://localhost:8080/cqf-ruler/baseDstu3/Immunization/Immunization-457129"
      }
    },
    {
      "fullUrl": "http://localhost:8080/cqf-ruler/baseDstu3/Observation/Observation-481926",
      "resource": {
        "resourceType": "Observation",
        "id": "Observation-481926",
        "status": "final",
        "code": {
          "coding": [
            {
              "system": "http://loinc.org",
              "code": "8302-2",
              "display": "Height"
            }
          ]
        },
        "subject": {
          "reference": "Patient/Patient-1121",
          "display": "Jerry Phillip Goodwall"
        },
        "context": {
          "reference": "Encounter/Encounter-2093",
          "display": "Pediatric and Adult Medicine"
        },
        "effectiveDateTime": "2011-05-08T00:00:00-04:00",
        "performer": [
          {
            "reference": "Practitioner/Practitioner-2517",
            "display": "Cathy Shannon Warner MD"
          }
        ],
        "valueQuantity": {
          "value": 181.7,
          "unit": "cm"
        }
      },
      "request": {
        "method": "PUT",
        "url": "http://localhost:8080/cqf-ruler/baseDstu3/Observation/Observation-481926"
      }
    },
    {
      "fullUrl": "http://localhost:8080/cqf-ruler/baseDstu3/Observation/Observation-481927",
      "resource": {
        "resourceType": "Observation",
        "id": "Observation-481927",
        "status": "final",
        "code": {
          "coding": [
            {
              "system": "http://loinc.org",
              "code": "29463-7",
              "display": "Weight"
            }
          ]
        },
        "subject": {
          "reference": "Patient/Patient-1121",
          "display": "Jerry Phillip Goodwall"
        },
        "context": {
          "reference": "Encounter/Encounter-2093",
          "display": "Pediatric and Adult Medicine"
        },
        "effectiveDateTime": "2011-05-08T00:00:00-04:00",
        "performer": [
          {
            "reference": "Practitioner/Practitioner-2517",
            "display": "Cathy Shannon Warner MD"
          }
        ],
        "valueQuantity": {
          "value": 101.60163262165209,
          "unit": "kg"
        }
      },
      "request": {
        "method": "PUT",
        "url": "http://localhost:8080/cqf-ruler/baseDstu3/Observation/Observation-481927"
      }
    },
    {
      "fullUrl": "http://localhost:8080/cqf-ruler/baseDstu3/Observation/Observation-481928",
      "resource": {
        "resourceType": "Observation",
        "id": "Observation-481928",
        "status": "final",
        "code": {
          "coding": [
            {
              "system": "http://loinc.org",
              "code": "39156-5",
              "display": "BMI"
            }
          ]
        },
        "subject": {
          "reference": "Patient/Patient-1121",
          "display": "Jerry Phillip Goodwall"
        },
        "context": {
          "reference": "Encounter/Encounter-2093",
          "display": "Pediatric and Adult Medicine"
        },
        "effectiveDateTime": "2011-05-08T00:00:00-04:00",
        "performer": [
          {
            "reference": "Practitioner/Practitioner-2517",
            "display": "Cathy Shannon Warner MD"
          }
        ],
        "valueQuantity": {
          "value": 30.774487699838495,
          "unit": "kg/m2"
        }
      },
      "request": {
        "method": "PUT",
        "url": "http://localhost:8080/cqf-ruler/baseDstu3/Observation/Observation-481928"
      }
    },
    {
      "fullUrl": "http://localhost:8080/cqf-ruler/baseDstu3/Observation/Observation-481929",
      "resource": {
        "resourceType": "Observation",
        "id": "Observation-481929",
        "status": "final",
        "code": {
          "coding": [
            {
              "system": "http://loinc.org",
              "code": "8310-5",
              "display": "Temperature"
            }
          ]
        },
        "subject": {
          "reference": "Patient/Patient-1121",
          "display": "Jerry Phillip Goodwall"
        },
        "context": {
          "reference": "Encounter/Encounter-2093",
          "display": "Pediatric and Adult Medicine"
        },
        "effectiveDateTime": "2011-05-08T00:00:00-04:00",
        "performer": [
          {
            "reference": "Practitioner/Practitioner-2517",
            "display": "Cathy Shannon Warner MD"
          }
        ],
        "valueQuantity": {
          "value": 37.0,
          "unit": "C"
        }
      },
      "request": {
        "method": "PUT",
        "url": "http://localhost:8080/cqf-ruler/baseDstu3/Observation/Observation-481929"
      }
    },
    {
      "fullUrl": "http://localhost:8080/cqf-ruler/baseDstu3/Observation/Observation-481930",
      "resource": {
        "resourceType": "Observation",
        "id": "Observation-481930",
        "status": "final",
        "code": {
          "coding": [
            {
              "system": "http://loinc.org",
              "code": "8459-0",
              "display": "Systolic Blood Pressure"
            }
          ]
        },
        "subject": {
          "reference": "Patient/Patient-1121",
          "display": "Jerry Phillip Goodwall"
        },
        "context": {
          "reference": "Encounter/Encounter-2093",
          "display": "Pediatric and Adult Medicine"
        },
        "effectiveDateTime": "2011-05-08T00:00:00-04:00",
        "performer": [
          {
            "reference": "Practitioner/Practitioner-2517",
            "display": "Cathy Shannon Warner MD"
          }
        ],
        "valueQuantity": {
          "value": 111.78052630992077,
          "unit": "mmHg"
        }
      },
      "request": {
        "method": "PUT",
        "url": "http://localhost:8080/cqf-ruler/baseDstu3/Observation/Observation-481930"
      }
    },
    {
      "fullUrl": "http://localhost:8080/cqf-ruler/baseDstu3/Observation/Observation-481931",
      "resource": {
        "resourceType": "Observation",
        "id": "Observation-481931",
        "status": "final",
        "code": {
          "coding": [
            {
              "system": "http://loinc.org",
              "code": "8453-3",
              "display": "Diastolic Blood Pressure"
            }
          ]
        },
        "subject": {
          "reference": "Patient/Patient-1121",
          "display": "Jerry Phillip Goodwall"
        },
        "context": {
          "reference": "Encounter/Encounter-2093",
          "display": "Pediatric and Adult Medicine"
        },
        "effectiveDateTime": "2011-05-08T00:00:00-04:00",
        "performer": [
          {
            "reference": "Practitioner/Practitioner-2517",
            "display": "Cathy Shannon Warner MD"
          }
        ],
        "valueQuantity": {
          "value": 79.4366871142655,
          "unit": "mmHg"
        }
      },
      "request": {
        "method": "PUT",
        "url": "http://localhost:8080/cqf-ruler/baseDstu3/Observation/Observation-481931"
      }
    },
    {
      "fullUrl": "http://localhost:8080/cqf-ruler/baseDstu3/DiagnosticReport/DiagnosticReport-481925",
      "resource": {
        "resourceType": "DiagnosticReport",
        "id": "DiagnosticReport-481925",
        "status": "final",
        "code": {
          "coding": [
            {
              "system": "http://loinc.org",
              "code": "8716-3",
              "display": "Vital Signs Panel"
            }
          ]
        },
        "subject": {
          "reference": "Patient/Patient-1121",
          "display": "Jerry Phillip Goodwall"
        },
        "context": {
          "reference": "Encounter/Encounter-2093",
          "display": "Pediatric and Adult Medicine"
        },
        "effectivePeriod": {
          "start": "2011-05-08T00:00:00-04:00",
          "end": "2011-05-08T00:00:00-04:00"
        },
        "issued": "2011-05-08T00:00:00.000-04:00",
        "result": [
          {
            "reference": "Observation/Observation-481926",
            "display": "Height"
          },
          {
            "reference": "Observation/Observation-481927",
            "display": "Weight"
          },
          {
            "reference": "Observation/Observation-481928",
            "display": "BMI"
          },
          {
            "reference": "Observation/Observation-481929",
            "display": "Temperature"
          },
          {
            "reference": "Observation/Observation-481930",
            "display": "Systolic Blood Pressure"
          },
          {
            "reference": "Observation/Observation-481931",
            "display": "Diastolic Blood Pressure"
          }
        ]
      },
      "request": {
        "method": "PUT",
        "url": "http://localhost:8080/cqf-ruler/baseDstu3/DiagnosticReport/DiagnosticReport-481925"
      }
    }
  ]
}