{
  "resourceType": "Bundle",
  "id": "Jessica-Pauleen-Campbell-1128-Encounter-1189",
  "type": "transaction",
  "entry": [
    {
      "fullUrl": "http://localhost:8080/cqf-ruler/baseDstu3/Encounter/Encounter-1189",
      "resource": {
        "resourceType": "Encounter",
        "id": "Encounter-1189",
        "meta": {
          "profile": [
            "http://hl7.org/fhir/us/hedis/StructureDefinition/hedis-encounter"
          ]
        },
        "status": "finished",
        "class": {
          "system": "http://hl7.org/fhir/encounter-class",
          "code": "outpatient",
          "display": "Outpatient"
        },
        "type": [
          {
            "coding": [
              {
                "system": "http://snomed.info/sct",
                "code": "185349003",
                "display": "Wellness Visit"
              }
            ]
          }
        ],
        "subject": {
          "reference": "Patient/Patient-1128",
          "display": "Jessica Pauleen Campbell"
        },
        "participant": [
          {
            "period": {
              "start": "2000-09-29T00:00:00-04:00",
              "end": "2000-09-29T00:00:00-04:00"
            },
            "individual": {
              "reference": "Practitioner/Practitioner-2525",
              "display": "Kyle Christian Ballard MD"
            }
          }
        ],
        "period": {
          "start": "2000-09-29T00:00:00-04:00",
          "end": "2000-09-29T00:00:00-04:00"
        },
        "location": [
          {
            "location": {
              "reference": "Location/Location-1104",
              "display": "Bay Area Family Practice"
            }
          }
        ],
        "serviceProvider": {
          "reference": "Organization/Organization-1104",
          "display": "Bay Area Family Practice"
        }
      },
      "request": {
        "method": "PUT",
        "url": "http://localhost:8080/cqf-ruler/baseDstu3/Encounter/Encounter-1189"
      }
    },
    {
      "fullUrl": "http://localhost:8080/cqf-ruler/baseDstu3/Immunization/Immunization-233886",
      "resource": {
        "resourceType": "Immunization",
        "id": "Immunization-233886",
        "status": "completed",
        "notGiven": false,
        "vaccineCode": {
          "coding": [
            {
              "system": "http://hl7.org/fhir/sid/cvx",
              "code": "140",
              "display": "Influenza, seasonal, injectable, preservative free"
            }
          ]
        },
        "patient": {
          "reference": "Patient/Patient-1128",
          "display": "Jessica Pauleen Campbell"
        },
        "date": "2000-09-29T00:00:00-04:00",
        "primarySource": true,
        "location": {
          "reference": "Location/Location-1104",
          "display": "Bay Area Family Practice"
        },
        "practitioner": [
          {
            "actor": {
              "reference": "Practitioner/Practitioner-2525",
              "display": "Kyle Christian Ballard MD"
            }
          }
        ]
      },
      "request": {
        "method": "PUT",
        "url": "http://localhost:8080/cqf-ruler/baseDstu3/Immunization/Immunization-233886"
      }
    },
    {
      "fullUrl": "http://localhost:8080/cqf-ruler/baseDstu3/Procedure/Procedure-255257",
      "resource": {
        "resourceType": "Procedure",
        "id": "Procedure-255257",
        "meta": {
          "profile": [
            "http://hl7.org/fhir/us/hedis/StructureDefinition/hedis-procedure"
          ]
        },
        "status": "completed",
        "code": {
          "coding": [
            {
              "system": "http://snomed.info/sct",
              "code": "713107002",
              "display": "Screening for alcohol abuse (procedure)"
            }
          ]
        },
        "subject": {
          "reference": "Patient/Patient-1128",
          "display": "Jessica Pauleen Campbell"
        },
        "context": {
          "reference": "Encounter/Encounter-1189",
          "display": "Wellness Visit"
        },
        "performedPeriod": {
          "start": "2000-09-29T00:00:00-04:00",
          "end": "2000-09-29T00:00:00-04:00"
        },
        "performer": [
          {
            "actor": {
              "reference": "Practitioner/Practitioner-2525",
              "display": "Kyle Christian Ballard MD"
            }
          }
        ],
        "location": {
          "reference": "Location/Location-1104",
          "display": "Bay Area Family Practice"
        }
      },
      "request": {
        "method": "PUT",
        "url": "http://localhost:8080/cqf-ruler/baseDstu3/Procedure/Procedure-255257"
      }
    },
    {
      "fullUrl": "http://localhost:8080/cqf-ruler/baseDstu3/Observation/Observation-255258",
      "resource": {
        "resourceType": "Observation",
        "id": "Observation-255258",
        "meta": {
          "profile": [
            "http://hl7.org/fhir/us/hedis/StructureDefinition/hedis-observation"
          ]
        },
        "status": "final",
        "code": {
          "coding": [
            {
              "system": "http://snomed.info/sct",
              "code": "704198001",
              "display": "Denies alcohol use (finding)"
            }
          ]
        },
        "subject": {
          "reference": "Patient/Patient-1128",
          "display": "Jessica Pauleen Campbell"
        },
        "context": {
          "reference": "Encounter/Encounter-1189",
          "display": "Wellness Visit"
        },
        "effectiveDateTime": "2000-09-29T00:00:00-04:00",
        "performer": [
          {
            "reference": "Practitioner/Practitioner-2525",
            "display": "Kyle Christian Ballard MD"
          }
        ],
        "valueQuantity": {
          "value": 0.0,
          "unit": "drinks/day"
        }
      },
      "request": {
        "method": "PUT",
        "url": "http://localhost:8080/cqf-ruler/baseDstu3/Observation/Observation-255258"
      }
    },
    {
      "fullUrl": "http://localhost:8080/cqf-ruler/baseDstu3/Observation/Observation-255259",
      "resource": {
        "resourceType": "Observation",
        "id": "Observation-255259",
        "meta": {
          "profile": [
            "http://hl7.org/fhir/us/hedis/StructureDefinition/hedis-observation"
          ]
        },
        "status": "final",
        "code": {
          "coding": [
            {
              "system": "http://loinc.org",
              "code": "8480-6",
              "display": "Systolic blood pressure"
            }
          ]
        },
        "subject": {
          "reference": "Patient/Patient-1128",
          "display": "Jessica Pauleen Campbell"
        },
        "context": {
          "reference": "Encounter/Encounter-1189",
          "display": "Wellness Visit"
        },
        "effectiveDateTime": "2000-09-29T00:00:00-04:00",
        "performer": [
          {
            "reference": "Practitioner/Practitioner-2525",
            "display": "Kyle Christian Ballard MD"
          }
        ],
        "valueQuantity": {
          "value": 151.00734217168144,
          "unit": "mmHg"
        }
      },
      "request": {
        "method": "PUT",
        "url": "http://localhost:8080/cqf-ruler/baseDstu3/Observation/Observation-255259"
      }
    },
    {
      "fullUrl": "http://localhost:8080/cqf-ruler/baseDstu3/Observation/Observation-255260",
      "resource": {
        "resourceType": "Observation",
        "id": "Observation-255260",
        "meta": {
          "profile": [
            "http://hl7.org/fhir/us/hedis/StructureDefinition/hedis-observation"
          ]
        },
        "status": "final",
        "code": {
          "coding": [
            {
              "system": "http://loinc.org",
              "code": "8462-4",
              "display": "Diastolic blood pressure"
            }
          ]
        },
        "subject": {
          "reference": "Patient/Patient-1128",
          "display": "Jessica Pauleen Campbell"
        },
        "context": {
          "reference": "Encounter/Encounter-1189",
          "display": "Wellness Visit"
        },
        "effectiveDateTime": "2000-09-29T00:00:00-04:00",
        "performer": [
          {
            "reference": "Practitioner/Practitioner-2525",
            "display": "Kyle Christian Ballard MD"
          }
        ],
        "valueQuantity": {
          "value": 110.19426272090809,
          "unit": "mmHg"
        }
      },
      "request": {
        "method": "PUT",
        "url": "http://localhost:8080/cqf-ruler/baseDstu3/Observation/Observation-255260"
      }
    },
    {
      "fullUrl": "http://localhost:8080/cqf-ruler/baseDstu3/Condition/Condition-255261",
      "resource": {
        "resourceType": "Condition",
        "id": "Condition-255261",
        "meta": {
          "profile": [
            "http://hl7.org/fhir/us/hedis/StructureDefinition/hedis-condition"
          ]
        },
        "clinicalStatus": "active",
        "verificationStatus": "confirmed",
        "code": {
          "coding": [
            {
              "system": "TBD",
              "code": "TBD",
              "display": "TBD"
            }
          ]
        },
        "subject": {
          "reference": "Patient/Patient-1128",
          "display": "Jessica Pauleen Campbell"
        },
        "context": {
          "reference": "Encounter/Encounter-1189",
          "display": "Wellness Visit"
        },
        "onsetDateTime": "2000-09-29T00:00:00-04:00",
        "assertedDate": "2000-09-29T00:00:00-04:00",
        "asserter": {
          "reference": "Practitioner/Practitioner-2525",
          "display": "Kyle Christian Ballard MD"
        }
      },
      "request": {
        "method": "PUT",
        "url": "http://localhost:8080/cqf-ruler/baseDstu3/Condition/Condition-255261"
      }
    },
    {
      "fullUrl": "http://localhost:8080/cqf-ruler/baseDstu3/Observation/Observation-255262",
      "resource": {
        "resourceType": "Observation",
        "id": "Observation-255262",
        "meta": {
          "profile": [
            "http://hl7.org/fhir/us/hedis/StructureDefinition/hedis-observation"
          ]
        },
        "status": "final",
        "code": {
          "coding": [
            {
              "system": "http://loinc.org",
              "code": "8302-2",
              "display": "Body Height"
            }
          ]
        },
        "subject": {
          "reference": "Patient/Patient-1128",
          "display": "Jessica Pauleen Campbell"
        },
        "context": {
          "reference": "Encounter/Encounter-1189",
          "display": "Wellness Visit"
        },
        "effectiveDateTime": "2000-09-29T00:00:00-04:00",
        "performer": [
          {
            "reference": "Practitioner/Practitioner-2525",
            "display": "Kyle Christian Ballard MD"
          }
        ],
        "valueQuantity": {
          "value": 167.7,
          "unit": "cm"
        }
      },
      "request": {
        "method": "PUT",
        "url": "http://localhost:8080/cqf-ruler/baseDstu3/Observation/Observation-255262"
      }
    },
    {
      "fullUrl": "http://localhost:8080/cqf-ruler/baseDstu3/Observation/Observation-255263",
      "resource": {
        "resourceType": "Observation",
        "id": "Observation-255263",
        "meta": {
          "profile": [
            "http://hl7.org/fhir/us/hedis/StructureDefinition/hedis-observation"
          ]
        },
        "status": "final",
        "code": {
          "coding": [
            {
              "system": "http://loinc.org",
              "code": "29463-7",
              "display": "Body Weight"
            }
          ]
        },
        "subject": {
          "reference": "Patient/Patient-1128",
          "display": "Jessica Pauleen Campbell"
        },
        "context": {
          "reference": "Encounter/Encounter-1189",
          "display": "Wellness Visit"
        },
        "effectiveDateTime": "2000-09-29T00:00:00-04:00",
        "performer": [
          {
            "reference": "Practitioner/Practitioner-2525",
            "display": "Kyle Christian Ballard MD"
          }
        ],
        "valueQuantity": {
          "value": 58.147462451103046,
          "unit": "kg"
        }
      },
      "request": {
        "method": "PUT",
        "url": "http://localhost:8080/cqf-ruler/baseDstu3/Observation/Observation-255263"
      }
    },
    {
      "fullUrl": "http://localhost:8080/cqf-ruler/baseDstu3/Observation/Observation-255264",
      "resource": {
        "resourceType": "Observation",
        "id": "Observation-255264",
        "meta": {
          "profile": [
            "http://hl7.org/fhir/us/hedis/StructureDefinition/hedis-observation"
          ]
        },
        "status": "final",
        "code": {
          "coding": [
            {
              "system": "http://loinc.org",
              "code": "39156-5",
              "display": "Body Mass Index"
            }
          ]
        },
        "subject": {
          "reference": "Patient/Patient-1128",
          "display": "Jessica Pauleen Campbell"
        },
        "context": {
          "reference": "Encounter/Encounter-1189",
          "display": "Wellness Visit"
        },
        "effectiveDateTime": "2000-09-29T00:00:00-04:00",
        "performer": [
          {
            "reference": "Practitioner/Practitioner-2525",
            "display": "Kyle Christian Ballard MD"
          }
        ],
        "valueQuantity": {
          "value": 20.675910411300762,
          "unit": "kg/m2"
        }
      },
      "request": {
        "method": "PUT",
        "url": "http://localhost:8080/cqf-ruler/baseDstu3/Observation/Observation-255264"
      }
    },
    {
      "fullUrl": "http://localhost:8080/cqf-ruler/baseDstu3/Observation/Observation-255267",
      "resource": {
        "resourceType": "Observation",
        "id": "Observation-255267",
        "meta": {
          "profile": [
            "http://hl7.org/fhir/us/hedis/StructureDefinition/hedis-observation"
          ]
        },
        "status": "final",
        "code": {
          "coding": [
            {
              "system": "http://loinc.org",
              "code": "55284-4",
              "display": "Blood Pressure"
            }
          ]
        },
        "subject": {
          "reference": "Patient/Patient-1128",
          "display": "Jessica Pauleen Campbell"
        },
        "context": {
          "reference": "Encounter/Encounter-1189",
          "display": "Wellness Visit"
        },
        "effectiveDateTime": "2000-09-29T00:00:00-04:00",
        "valueQuantity": {
          "value": 110.19426272090809,
          "unit": "mmHg"
        },
        "component": [
          {
            "code": {
              "coding": [
                {
                  "system": "http://loinc.org",
                  "code": "8480-6",
                  "display": "Systolic Blood Pressure"
                }
              ]
            }
          },
          {
            "code": {
              "coding": [
                {
                  "system": "http://loinc.org",
                  "code": "8462-4",
                  "display": "Diastolic Blood Pressure"
                }
              ]
            }
          }
        ]
      },
      "request": {
        "method": "PUT",
        "url": "http://localhost:8080/cqf-ruler/baseDstu3/Observation/Observation-255267"
      }
    },
    {
      "fullUrl": "http://localhost:8080/cqf-ruler/baseDstu3/Observation/Observation-255269",
      "resource": {
        "resourceType": "Observation",
        "id": "Observation-255269",
        "status": "final",
        "code": {
          "coding": [
            {
              "system": "http://loinc.org",
              "code": "8302-2",
              "display": "Height"
            }
          ]
        },
        "subject": {
          "reference": "Patient/Patient-1128",
          "display": "Jessica Pauleen Campbell"
        },
        "context": {
          "reference": "Encounter/Encounter-1189",
          "display": "Wellness Visit"
        },
        "effectiveDateTime": "2000-09-29T00:00:00-04:00",
        "performer": [
          {
            "reference": "Practitioner/Practitioner-2525",
            "display": "Kyle Christian Ballard MD"
          }
        ],
        "valueQuantity": {
          "value": 167.7,
          "unit": "cm"
        }
      },
      "request": {
        "method": "PUT",
        "url": "http://localhost:8080/cqf-ruler/baseDstu3/Observation/Observation-255269"
      }
    },
    {
      "fullUrl": "http://localhost:8080/cqf-ruler/baseDstu3/Observation/Observation-255270",
      "resource": {
        "resourceType": "Observation",
        "id": "Observation-255270",
        "status": "final",
        "code": {
          "coding": [
            {
              "system": "http://loinc.org",
              "code": "29463-7",
              "display": "Weight"
            }
          ]
        },
        "subject": {
          "reference": "Patient/Patient-1128",
          "display": "Jessica Pauleen Campbell"
        },
        "context": {
          "reference": "Encounter/Encounter-1189",
          "display": "Wellness Visit"
        },
        "effectiveDateTime": "2000-09-29T00:00:00-04:00",
        "performer": [
          {
            "reference": "Practitioner/Practitioner-2525",
            "display": "Kyle Christian Ballard MD"
          }
        ],
        "valueQuantity": {
          "value": 58.147462451103046,
          "unit": "kg"
        }
      },
      "request": {
        "method": "PUT",
        "url": "http://localhost:8080/cqf-ruler/baseDstu3/Observation/Observation-255270"
      }
    },
    {
      "fullUrl": "http://localhost:8080/cqf-ruler/baseDstu3/Observation/Observation-255271",
      "resource": {
        "resourceType": "Observation",
        "id": "Observation-255271",
        "status": "final",
        "code": {
          "coding": [
            {
              "system": "http://loinc.org",
              "code": "39156-5",
              "display": "BMI"
            }
          ]
        },
        "subject": {
          "reference": "Patient/Patient-1128",
          "display": "Jessica Pauleen Campbell"
        },
        "context": {
          "reference": "Encounter/Encounter-1189",
          "display": "Wellness Visit"
        },
        "effectiveDateTime": "2000-09-29T00:00:00-04:00",
        "performer": [
          {
            "reference": "Practitioner/Practitioner-2525",
            "display": "Kyle Christian Ballard MD"
          }
        ],
        "valueQuantity": {
          "value": 20.675910411300762,
          "unit": "kg/m2"
        }
      },
      "request": {
        "method": "PUT",
        "url": "http://localhost:8080/cqf-ruler/baseDstu3/Observation/Observation-255271"
      }
    },
    {
      "fullUrl": "http://localhost:8080/cqf-ruler/baseDstu3/Observation/Observation-255272",
      "resource": {
        "resourceType": "Observation",
        "id": "Observation-255272",
        "status": "final",
        "code": {
          "coding": [
            {
              "system": "http://loinc.org",
              "code": "8310-5",
              "display": "Temperature"
            }
          ]
        },
        "subject": {
          "reference": "Patient/Patient-1128",
          "display": "Jessica Pauleen Campbell"
        },
        "context": {
          "reference": "Encounter/Encounter-1189",
          "display": "Wellness Visit"
        },
        "effectiveDateTime": "2000-09-29T00:00:00-04:00",
        "performer": [
          {
            "reference": "Practitioner/Practitioner-2525",
            "display": "Kyle Christian Ballard MD"
          }
        ],
        "valueQuantity": {
          "value": 37.0,
          "unit": "C"
        }
      },
      "request": {
        "method": "PUT",
        "url": "http://localhost:8080/cqf-ruler/baseDstu3/Observation/Observation-255272"
      }
    },
    {
      "fullUrl": "http://localhost:8080/cqf-ruler/baseDstu3/Observation/Observation-255273",
      "resource": {
        "resourceType": "Observation",
        "id": "Observation-255273",
        "status": "final",
        "code": {
          "coding": [
            {
              "system": "http://loinc.org",
              "code": "8459-0",
              "display": "Systolic Blood Pressure"
            }
          ]
        },
        "subject": {
          "reference": "Patient/Patient-1128",
          "display": "Jessica Pauleen Campbell"
        },
        "context": {
          "reference": "Encounter/Encounter-1189",
          "display": "Wellness Visit"
        },
        "effectiveDateTime": "2000-09-29T00:00:00-04:00",
        "performer": [
          {
            "reference": "Practitioner/Practitioner-2525",
            "display": "Kyle Christian Ballard MD"
          }
        ],
        "valueQuantity": {
          "value": 151.00734217168144,
          "unit": "mmHg"
        }
      },
      "request": {
        "method": "PUT",
        "url": "http://localhost:8080/cqf-ruler/baseDstu3/Observation/Observation-255273"
      }
    },
    {
      "fullUrl": "http://localhost:8080/cqf-ruler/baseDstu3/Observation/Observation-255274",
      "resource": {
        "resourceType": "Observation",
        "id": "Observation-255274",
        "status": "final",
        "code": {
          "coding": [
            {
              "system": "http://loinc.org",
              "code": "8453-3",
              "display": "Diastolic Blood Pressure"
            }
          ]
        },
        "subject": {
          "reference": "Patient/Patient-1128",
          "display": "Jessica Pauleen Campbell"
        },
        "context": {
          "reference": "Encounter/Encounter-1189",
          "display": "Wellness Visit"
        },
        "effectiveDateTime": "2000-09-29T00:00:00-04:00",
        "performer": [
          {
            "reference": "Practitioner/Practitioner-2525",
            "display": "Kyle Christian Ballard MD"
          }
        ],
        "valueQuantity": {
          "value": 110.19426272090809,
          "unit": "mmHg"
        }
      },
      "request": {
        "method": "PUT",
        "url": "http://localhost:8080/cqf-ruler/baseDstu3/Observation/Observation-255274"
      }
    },
    {
      "fullUrl": "http://localhost:8080/cqf-ruler/baseDstu3/DiagnosticReport/DiagnosticReport-255268",
      "resource": {
        "resourceType": "DiagnosticReport",
        "id": "DiagnosticReport-255268",
        "meta": {
          "profile": [
            "http://hl7.org/fhir/us/hedis/StructureDefinition/hedis-diagnosticreport"
          ]
        },
        "status": "final",
        "category": {
          "coding": [
            {
              "system": "http://hl7.org/fhir/ValueSet/diagnostic-service-sections",
              "code": "LAB",
              "display": "Laboratory"
            }
          ]
        },
        "code": {
          "coding": [
            {
              "system": "http://loinc.org",
              "code": "8716-3",
              "display": "Vital Signs Panel"
            }
          ]
        },
        "subject": {
          "reference": "Patient/Patient-1128",
          "display": "Jessica Pauleen Campbell"
        },
        "context": {
          "reference": "Encounter/Encounter-1189",
          "display": "Wellness Visit"
        },
        "effectivePeriod": {
          "start": "2000-09-29T00:00:00-04:00",
          "end": "2000-09-29T00:00:00-04:00"
        },
        "issued": "2000-09-29T00:00:00.000-04:00",
        "result": [
          {
            "reference": "Observation/Observation-255269",
            "display": "Height"
          },
          {
            "reference": "Observation/Observation-255270",
            "display": "Weight"
          },
          {
            "reference": "Observation/Observation-255271",
            "display": "BMI"
          },
          {
            "reference": "Observation/Observation-255272",
            "display": "Temperature"
          },
          {
            "reference": "Observation/Observation-255273",
            "display": "Systolic Blood Pressure"
          },
          {
            "reference": "Observation/Observation-255274",
            "display": "Diastolic Blood Pressure"
          }
        ]
      },
      "request": {
        "method": "PUT",
        "url": "http://localhost:8080/cqf-ruler/baseDstu3/DiagnosticReport/DiagnosticReport-255268"
      }
    }
  ]
}