{
  "resourceType": "Bundle",
  "id": "Jessica-Pauleen-Campbell-1128-Encounter-3538",
  "type": "transaction",
  "entry": [
    {
      "fullUrl": "http://localhost:8080/cqf-ruler/baseDstu3/Encounter/Encounter-3538",
      "resource": {
        "resourceType": "Encounter",
        "id": "Encounter-3538",
        "meta": {
          "profile": [
            "http://hl7.org/fhir/us/hedis/StructureDefinition/hedis-encounter"
          ]
        },
        "status": "finished",
        "class": {
          "system": "http://hl7.org/fhir/encounter-class",
          "code": "outpatient",
          "display": "Outpatient"
        },
        "type": [
          {
            "coding": [
              {
                "system": "https://www.cms.gov/Medicare/Coding/MedHCPCSGenInfo",
                "code": "H2000",
                "display": "Comprehensive multidisciplinary evaluation (H2000)"
              }
            ]
          }
        ],
        "subject": {
          "reference": "Patient/Patient-1128",
          "display": "Jessica Pauleen Campbell"
        },
        "participant": [
          {
            "period": {
              "start": "2017-03-03T00:00:00-05:00",
              "end": "2017-03-03T00:00:00-05:00"
            },
            "individual": {
              "reference": "Practitioner/Practitioner-2525",
              "display": "Kyle Christian Ballard MD"
            }
          }
        ],
        "period": {
          "start": "2017-03-03T00:00:00-05:00",
          "end": "2017-03-03T00:00:00-05:00"
        },
        "reason": [
          {
            "coding": [
              {
                "system": "http://snomed.info/sct",
                "code": "310496002",
                "display": "Moderate depression (disorder)"
              }
            ]
          }
        ],
        "location": [
          {
            "location": {
              "reference": "Location/Location-1104",
              "display": "Bay Area Family Practice"
            }
          }
        ],
        "serviceProvider": {
          "reference": "Organization/Organization-1104",
          "display": "Bay Area Family Practice"
        }
      },
      "request": {
        "method": "PUT",
        "url": "http://localhost:8080/cqf-ruler/baseDstu3/Encounter/Encounter-3538"
      }
    },
    {
      "fullUrl": "http://localhost:8080/cqf-ruler/baseDstu3/Procedure/Procedure-664708",
      "resource": {
        "resourceType": "Procedure",
        "id": "Procedure-664708",
        "meta": {
          "profile": [
            "http://hl7.org/fhir/us/hedis/StructureDefinition/hedis-procedure"
          ]
        },
        "status": "completed",
        "code": {
          "coding": [
            {
              "system": "http://test",
              "code": "2.16.840.1.113883.3.67.1.101.11.723",
              "display": "2.16.840.1.113883.3.67.1.101.11.723"
            }
          ]
        },
        "subject": {
          "reference": "Patient/Patient-1128",
          "display": "Jessica Pauleen Campbell"
        },
        "context": {
          "reference": "Encounter/Encounter-3538",
          "display": "DRR_Encounter"
        },
        "performedPeriod": {
          "start": "2017-03-03T00:00:00-05:00",
          "end": "2017-03-03T00:00:00-05:00"
        },
        "performer": [
          {
            "actor": {
              "reference": "Practitioner/Practitioner-2525",
              "display": "Kyle Christian Ballard MD"
            }
          }
        ],
        "location": {
          "reference": "Location/Location-1104",
          "display": "Bay Area Family Practice"
        }
      },
      "request": {
        "method": "PUT",
        "url": "http://localhost:8080/cqf-ruler/baseDstu3/Procedure/Procedure-664708"
      }
    },
    {
      "fullUrl": "http://localhost:8080/cqf-ruler/baseDstu3/Observation/Observation-664709",
      "resource": {
        "resourceType": "Observation",
        "id": "Observation-664709",
        "meta": {
          "profile": [
            "http://hl7.org/fhir/us/hedis/StructureDefinition/hedis-observation"
          ]
        },
        "status": "final",
        "code": {
          "coding": [
            {
              "system": "http://cqframework.info/codesystem/placeholder",
              "code": "00009",
              "display": "PHQ-9 Modified Score"
            }
          ]
        },
        "subject": {
          "reference": "Patient/Patient-1128",
          "display": "Jessica Pauleen Campbell"
        },
        "context": {
          "reference": "Encounter/Encounter-3538",
          "display": "DRR_Encounter"
        },
        "effectiveDateTime": "2017-03-03T00:00:00-05:00",
        "performer": [
          {
            "reference": "Practitioner/Practitioner-2525",
            "display": "Kyle Christian Ballard MD"
          }
        ],
        "valueQuantity": {
          "value": 0.0,
          "unit": "score"
        }
      },
      "request": {
        "method": "PUT",
        "url": "http://localhost:8080/cqf-ruler/baseDstu3/Observation/Observation-664709"
      }
    },
    {
      "fullUrl": "http://localhost:8080/cqf-ruler/baseDstu3/DiagnosticReport/DiagnosticReport-664710",
      "resource": {
        "resourceType": "DiagnosticReport",
        "id": "DiagnosticReport-664710",
        "meta": {
          "profile": [
            "http://hl7.org/fhir/us/hedis/StructureDefinition/hedis-diagnosticreport"
          ]
        },
        "status": "final",
        "category": {
          "coding": [
            {
              "system": "http://hl7.org/fhir/ValueSet/diagnostic-service-sections",
              "code": "OTH",
              "display": "Other"
            }
          ]
        },
        "code": {
          "coding": [
            {
              "system": "http://snomed.info/sct",
              "code": "36923009",
              "display": "Major depression, single episode (disorder)"
            }
          ]
        },
        "subject": {
          "reference": "Patient/Patient-1128",
          "display": "Jessica Pauleen Campbell"
        },
        "context": {
          "reference": "Encounter/Encounter-3538",
          "display": "DRR_Encounter"
        },
        "effectivePeriod": {
          "start": "2017-03-03T00:00:00-05:00",
          "end": "2017-03-03T00:00:00-05:00"
        },
        "issued": "2017-03-03T00:00:00.000-05:00"
      },
      "request": {
        "method": "PUT",
        "url": "http://localhost:8080/cqf-ruler/baseDstu3/DiagnosticReport/DiagnosticReport-664710"
      }
    },
    {
      "fullUrl": "http://localhost:8080/cqf-ruler/baseDstu3/Observation/Observation-664713",
      "resource": {
        "resourceType": "Observation",
        "id": "Observation-664713",
        "status": "final",
        "code": {
          "coding": [
            {
              "system": "http://loinc.org",
              "code": "8302-2",
              "display": "Height"
            }
          ]
        },
        "subject": {
          "reference": "Patient/Patient-1128",
          "display": "Jessica Pauleen Campbell"
        },
        "context": {
          "reference": "Encounter/Encounter-3538",
          "display": "DRR_Encounter"
        },
        "effectiveDateTime": "2017-03-03T00:00:00-05:00",
        "performer": [
          {
            "reference": "Practitioner/Practitioner-2525",
            "display": "Kyle Christian Ballard MD"
          }
        ],
        "valueQuantity": {
          "value": 167.7,
          "unit": "cm"
        }
      },
      "request": {
        "method": "PUT",
        "url": "http://localhost:8080/cqf-ruler/baseDstu3/Observation/Observation-664713"
      }
    },
    {
      "fullUrl": "http://localhost:8080/cqf-ruler/baseDstu3/Observation/Observation-664714",
      "resource": {
        "resourceType": "Observation",
        "id": "Observation-664714",
        "status": "final",
        "code": {
          "coding": [
            {
              "system": "http://loinc.org",
              "code": "29463-7",
              "display": "Weight"
            }
          ]
        },
        "subject": {
          "reference": "Patient/Patient-1128",
          "display": "Jessica Pauleen Campbell"
        },
        "context": {
          "reference": "Encounter/Encounter-3538",
          "display": "DRR_Encounter"
        },
        "effectiveDateTime": "2017-03-03T00:00:00-05:00",
        "performer": [
          {
            "reference": "Practitioner/Practitioner-2525",
            "display": "Kyle Christian Ballard MD"
          }
        ],
        "valueQuantity": {
          "value": 62.11889946503391,
          "unit": "kg"
        }
      },
      "request": {
        "method": "PUT",
        "url": "http://localhost:8080/cqf-ruler/baseDstu3/Observation/Observation-664714"
      }
    },
    {
      "fullUrl": "http://localhost:8080/cqf-ruler/baseDstu3/Observation/Observation-664715",
      "resource": {
        "resourceType": "Observation",
        "id": "Observation-664715",
        "status": "final",
        "code": {
          "coding": [
            {
              "system": "http://loinc.org",
              "code": "39156-5",
              "display": "BMI"
            }
          ]
        },
        "subject": {
          "reference": "Patient/Patient-1128",
          "display": "Jessica Pauleen Campbell"
        },
        "context": {
          "reference": "Encounter/Encounter-3538",
          "display": "DRR_Encounter"
        },
        "effectiveDateTime": "2017-03-03T00:00:00-05:00",
        "performer": [
          {
            "reference": "Practitioner/Practitioner-2525",
            "display": "Kyle Christian Ballard MD"
          }
        ],
        "valueQuantity": {
          "value": 22.088062764005894,
          "unit": "kg/m2"
        }
      },
      "request": {
        "method": "PUT",
        "url": "http://localhost:8080/cqf-ruler/baseDstu3/Observation/Observation-664715"
      }
    },
    {
      "fullUrl": "http://localhost:8080/cqf-ruler/baseDstu3/Observation/Observation-664716",
      "resource": {
        "resourceType": "Observation",
        "id": "Observation-664716",
        "status": "final",
        "code": {
          "coding": [
            {
              "system": "http://loinc.org",
              "code": "8310-5",
              "display": "Temperature"
            }
          ]
        },
        "subject": {
          "reference": "Patient/Patient-1128",
          "display": "Jessica Pauleen Campbell"
        },
        "context": {
          "reference": "Encounter/Encounter-3538",
          "display": "DRR_Encounter"
        },
        "effectiveDateTime": "2017-03-03T00:00:00-05:00",
        "performer": [
          {
            "reference": "Practitioner/Practitioner-2525",
            "display": "Kyle Christian Ballard MD"
          }
        ],
        "valueQuantity": {
          "value": 37.0,
          "unit": "C"
        }
      },
      "request": {
        "method": "PUT",
        "url": "http://localhost:8080/cqf-ruler/baseDstu3/Observation/Observation-664716"
      }
    },
    {
      "fullUrl": "http://localhost:8080/cqf-ruler/baseDstu3/Observation/Observation-664717",
      "resource": {
        "resourceType": "Observation",
        "id": "Observation-664717",
        "status": "final",
        "code": {
          "coding": [
            {
              "system": "http://loinc.org",
              "code": "8459-0",
              "display": "Systolic Blood Pressure"
            }
          ]
        },
        "subject": {
          "reference": "Patient/Patient-1128",
          "display": "Jessica Pauleen Campbell"
        },
        "context": {
          "reference": "Encounter/Encounter-3538",
          "display": "DRR_Encounter"
        },
        "effectiveDateTime": "2017-03-03T00:00:00-05:00",
        "performer": [
          {
            "reference": "Practitioner/Practitioner-2525",
            "display": "Kyle Christian Ballard MD"
          }
        ],
        "valueQuantity": {
          "value": 138.49639065986972,
          "unit": "mmHg"
        }
      },
      "request": {
        "method": "PUT",
        "url": "http://localhost:8080/cqf-ruler/baseDstu3/Observation/Observation-664717"
      }
    },
    {
      "fullUrl": "http://localhost:8080/cqf-ruler/baseDstu3/Observation/Observation-664718",
      "resource": {
        "resourceType": "Observation",
        "id": "Observation-664718",
        "status": "final",
        "code": {
          "coding": [
            {
              "system": "http://loinc.org",
              "code": "8453-3",
              "display": "Diastolic Blood Pressure"
            }
          ]
        },
        "subject": {
          "reference": "Patient/Patient-1128",
          "display": "Jessica Pauleen Campbell"
        },
        "context": {
          "reference": "Encounter/Encounter-3538",
          "display": "DRR_Encounter"
        },
        "effectiveDateTime": "2017-03-03T00:00:00-05:00",
        "performer": [
          {
            "reference": "Practitioner/Practitioner-2525",
            "display": "Kyle Christian Ballard MD"
          }
        ],
        "valueQuantity": {
          "value": 108.37869022183804,
          "unit": "mmHg"
        }
      },
      "request": {
        "method": "PUT",
        "url": "http://localhost:8080/cqf-ruler/baseDstu3/Observation/Observation-664718"
      }
    },
    {
      "fullUrl": "http://localhost:8080/cqf-ruler/baseDstu3/DiagnosticReport/DiagnosticReport-664712",
      "resource": {
        "resourceType": "DiagnosticReport",
        "id": "DiagnosticReport-664712",
        "meta": {
          "profile": [
            "http://hl7.org/fhir/us/hedis/StructureDefinition/hedis-diagnosticreport"
          ]
        },
        "status": "final",
        "category": {
          "coding": [
            {
              "system": "http://hl7.org/fhir/ValueSet/diagnostic-service-sections",
              "code": "LAB",
              "display": "Laboratory"
            }
          ]
        },
        "code": {
          "coding": [
            {
              "system": "http://loinc.org",
              "code": "8716-3",
              "display": "Vital Signs Panel"
            }
          ]
        },
        "subject": {
          "reference": "Patient/Patient-1128",
          "display": "Jessica Pauleen Campbell"
        },
        "context": {
          "reference": "Encounter/Encounter-3538",
          "display": "DRR_Encounter"
        },
        "effectivePeriod": {
          "start": "2017-03-03T00:00:00-05:00",
          "end": "2017-03-03T00:00:00-05:00"
        },
        "issued": "2017-03-03T00:00:00.000-05:00",
        "result": [
          {
            "reference": "Observation/Observation-664713",
            "display": "Height"
          },
          {
            "reference": "Observation/Observation-664714",
            "display": "Weight"
          },
          {
            "reference": "Observation/Observation-664715",
            "display": "BMI"
          },
          {
            "reference": "Observation/Observation-664716",
            "display": "Temperature"
          },
          {
            "reference": "Observation/Observation-664717",
            "display": "Systolic Blood Pressure"
          },
          {
            "reference": "Observation/Observation-664718",
            "display": "Diastolic Blood Pressure"
          }
        ]
      },
      "request": {
        "method": "PUT",
        "url": "http://localhost:8080/cqf-ruler/baseDstu3/DiagnosticReport/DiagnosticReport-664712"
      }
    }
  ]
}