{
  "resourceType": "Bundle",
  "id": "Jessica-Pauleen-Campbell-1128-Encounter-299",
  "type": "transaction",
  "entry": [
    {
      "fullUrl": "http://localhost:8080/cqf-ruler/baseDstu3/Encounter/Encounter-299",
      "resource": {
        "resourceType": "Encounter",
        "id": "Encounter-299",
        "meta": {
          "profile": [
            "http://hl7.org/fhir/us/hedis/StructureDefinition/hedis-encounter"
          ]
        },
        "status": "finished",
        "class": {
          "system": "http://hl7.org/fhir/encounter-class",
          "code": "outpatient",
          "display": "Outpatient"
        },
        "subject": {
          "reference": "Patient/Patient-1128",
          "display": "Jessica Pauleen Campbell"
        },
        "participant": [
          {
            "period": {
              "start": "1990-01-12T00:00:00-05:00",
              "end": "1990-01-12T00:00:00-05:00"
            },
            "individual": {
              "reference": "Practitioner/Practitioner-2525",
              "display": "Kyle Christian Ballard MD"
            }
          }
        ],
        "period": {
          "start": "1990-01-12T00:00:00-05:00",
          "end": "1990-01-12T00:00:00-05:00"
        },
        "location": [
          {
            "location": {
              "reference": "Location/Location-1104",
              "display": "Bay Area Family Practice"
            }
          }
        ],
        "serviceProvider": {
          "reference": "Organization/Organization-1104",
          "display": "Bay Area Family Practice"
        }
      },
      "request": {
        "method": "PUT",
        "url": "http://localhost:8080/cqf-ruler/baseDstu3/Encounter/Encounter-299"
      }
    },
    {
      "fullUrl": "http://localhost:8080/cqf-ruler/baseDstu3/Immunization/Immunization-18173",
      "resource": {
        "resourceType": "Immunization",
        "id": "Immunization-18173",
        "status": "completed",
        "notGiven": false,
        "vaccineCode": {
          "coding": [
            {
              "system": "http://hl7.org/fhir/sid/cvx",
              "code": "140",
              "display": "Influenza, seasonal, injectable, preservative free"
            }
          ]
        },
        "patient": {
          "reference": "Patient/Patient-1128",
          "display": "Jessica Pauleen Campbell"
        },
        "date": "1990-01-12T00:00:00-05:00",
        "primarySource": true,
        "location": {
          "reference": "Location/Location-1104",
          "display": "Bay Area Family Practice"
        },
        "practitioner": [
          {
            "actor": {
              "reference": "Practitioner/Practitioner-2525",
              "display": "Kyle Christian Ballard MD"
            }
          }
        ]
      },
      "request": {
        "method": "PUT",
        "url": "http://localhost:8080/cqf-ruler/baseDstu3/Immunization/Immunization-18173"
      }
    },
    {
      "fullUrl": "http://localhost:8080/cqf-ruler/baseDstu3/Observation/Observation-37159",
      "resource": {
        "resourceType": "Observation",
        "id": "Observation-37159",
        "meta": {
          "profile": [
            "http://hl7.org/fhir/us/hedis/StructureDefinition/hedis-observation"
          ]
        },
        "status": "final",
        "code": {
          "coding": [
            {
              "system": "http://loinc.org",
              "code": "8480-6",
              "display": "Systolic blood pressure"
            }
          ]
        },
        "subject": {
          "reference": "Patient/Patient-1128",
          "display": "Jessica Pauleen Campbell"
        },
        "context": {
          "reference": "Encounter/Encounter-299",
          "display": "Wellness Visit"
        },
        "effectiveDateTime": "1990-01-12T00:00:00-05:00",
        "performer": [
          {
            "reference": "Practitioner/Practitioner-2525",
            "display": "Kyle Christian Ballard MD"
          }
        ],
        "valueQuantity": {
          "value": 133.81796218682263,
          "unit": "mmHg"
        }
      },
      "request": {
        "method": "PUT",
        "url": "http://localhost:8080/cqf-ruler/baseDstu3/Observation/Observation-37159"
      }
    },
    {
      "fullUrl": "http://localhost:8080/cqf-ruler/baseDstu3/Observation/Observation-37160",
      "resource": {
        "resourceType": "Observation",
        "id": "Observation-37160",
        "meta": {
          "profile": [
            "http://hl7.org/fhir/us/hedis/StructureDefinition/hedis-observation"
          ]
        },
        "status": "final",
        "code": {
          "coding": [
            {
              "system": "http://loinc.org",
              "code": "8462-4",
              "display": "Diastolic blood pressure"
            }
          ]
        },
        "subject": {
          "reference": "Patient/Patient-1128",
          "display": "Jessica Pauleen Campbell"
        },
        "context": {
          "reference": "Encounter/Encounter-299",
          "display": "Wellness Visit"
        },
        "effectiveDateTime": "1990-01-12T00:00:00-05:00",
        "performer": [
          {
            "reference": "Practitioner/Practitioner-2525",
            "display": "Kyle Christian Ballard MD"
          }
        ],
        "valueQuantity": {
          "value": 73.29062066918783,
          "unit": "mmHg"
        }
      },
      "request": {
        "method": "PUT",
        "url": "http://localhost:8080/cqf-ruler/baseDstu3/Observation/Observation-37160"
      }
    },
    {
      "fullUrl": "http://localhost:8080/cqf-ruler/baseDstu3/Observation/Observation-37161",
      "resource": {
        "resourceType": "Observation",
        "id": "Observation-37161",
        "meta": {
          "profile": [
            "http://hl7.org/fhir/us/hedis/StructureDefinition/hedis-observation"
          ]
        },
        "status": "final",
        "code": {
          "coding": [
            {
              "system": "http://loinc.org",
              "code": "8302-2",
              "display": "Body Height"
            }
          ]
        },
        "subject": {
          "reference": "Patient/Patient-1128",
          "display": "Jessica Pauleen Campbell"
        },
        "context": {
          "reference": "Encounter/Encounter-299",
          "display": "Wellness Visit"
        },
        "effectiveDateTime": "1990-01-12T00:00:00-05:00",
        "performer": [
          {
            "reference": "Practitioner/Practitioner-2525",
            "display": "Kyle Christian Ballard MD"
          }
        ],
        "valueQuantity": {
          "value": 138.3,
          "unit": "cm"
        }
      },
      "request": {
        "method": "PUT",
        "url": "http://localhost:8080/cqf-ruler/baseDstu3/Observation/Observation-37161"
      }
    },
    {
      "fullUrl": "http://localhost:8080/cqf-ruler/baseDstu3/Observation/Observation-37162",
      "resource": {
        "resourceType": "Observation",
        "id": "Observation-37162",
        "meta": {
          "profile": [
            "http://hl7.org/fhir/us/hedis/StructureDefinition/hedis-observation"
          ]
        },
        "status": "final",
        "code": {
          "coding": [
            {
              "system": "http://loinc.org",
              "code": "29463-7",
              "display": "Body Weight"
            }
          ]
        },
        "subject": {
          "reference": "Patient/Patient-1128",
          "display": "Jessica Pauleen Campbell"
        },
        "context": {
          "reference": "Encounter/Encounter-299",
          "display": "Wellness Visit"
        },
        "effectiveDateTime": "1990-01-12T00:00:00-05:00",
        "performer": [
          {
            "reference": "Practitioner/Practitioner-2525",
            "display": "Kyle Christian Ballard MD"
          }
        ],
        "valueQuantity": {
          "value": 29.8,
          "unit": "kg"
        }
      },
      "request": {
        "method": "PUT",
        "url": "http://localhost:8080/cqf-ruler/baseDstu3/Observation/Observation-37162"
      }
    },
    {
      "fullUrl": "http://localhost:8080/cqf-ruler/baseDstu3/Observation/Observation-37163",
      "resource": {
        "resourceType": "Observation",
        "id": "Observation-37163",
        "meta": {
          "profile": [
            "http://hl7.org/fhir/us/hedis/StructureDefinition/hedis-observation"
          ]
        },
        "status": "final",
        "code": {
          "coding": [
            {
              "system": "http://loinc.org",
              "code": "39156-5",
              "display": "Body Mass Index"
            }
          ]
        },
        "subject": {
          "reference": "Patient/Patient-1128",
          "display": "Jessica Pauleen Campbell"
        },
        "context": {
          "reference": "Encounter/Encounter-299",
          "display": "Wellness Visit"
        },
        "effectiveDateTime": "1990-01-12T00:00:00-05:00",
        "performer": [
          {
            "reference": "Practitioner/Practitioner-2525",
            "display": "Kyle Christian Ballard MD"
          }
        ],
        "valueQuantity": {
          "value": 15.580159660038825,
          "unit": "kg/m2"
        }
      },
      "request": {
        "method": "PUT",
        "url": "http://localhost:8080/cqf-ruler/baseDstu3/Observation/Observation-37163"
      }
    },
    {
      "fullUrl": "http://localhost:8080/cqf-ruler/baseDstu3/Observation/Observation-37166",
      "resource": {
        "resourceType": "Observation",
        "id": "Observation-37166",
        "meta": {
          "profile": [
            "http://hl7.org/fhir/us/hedis/StructureDefinition/hedis-observation"
          ]
        },
        "status": "final",
        "code": {
          "coding": [
            {
              "system": "http://loinc.org",
              "code": "55284-4",
              "display": "Blood Pressure"
            }
          ]
        },
        "subject": {
          "reference": "Patient/Patient-1128",
          "display": "Jessica Pauleen Campbell"
        },
        "context": {
          "reference": "Encounter/Encounter-299",
          "display": "Wellness Visit"
        },
        "effectiveDateTime": "1990-01-12T00:00:00-05:00",
        "valueQuantity": {
          "value": 73.29062066918783,
          "unit": "mmHg"
        },
        "component": [
          {
            "code": {
              "coding": [
                {
                  "system": "http://loinc.org",
                  "code": "8480-6",
                  "display": "Systolic Blood Pressure"
                }
              ]
            }
          },
          {
            "code": {
              "coding": [
                {
                  "system": "http://loinc.org",
                  "code": "8462-4",
                  "display": "Diastolic Blood Pressure"
                }
              ]
            }
          }
        ]
      },
      "request": {
        "method": "PUT",
        "url": "http://localhost:8080/cqf-ruler/baseDstu3/Observation/Observation-37166"
      }
    },
    {
      "fullUrl": "http://localhost:8080/cqf-ruler/baseDstu3/Observation/Observation-37168",
      "resource": {
        "resourceType": "Observation",
        "id": "Observation-37168",
        "status": "final",
        "code": {
          "coding": [
            {
              "system": "http://loinc.org",
              "code": "8302-2",
              "display": "Height"
            }
          ]
        },
        "subject": {
          "reference": "Patient/Patient-1128",
          "display": "Jessica Pauleen Campbell"
        },
        "context": {
          "reference": "Encounter/Encounter-299",
          "display": "Wellness Visit"
        },
        "effectiveDateTime": "1990-01-12T00:00:00-05:00",
        "performer": [
          {
            "reference": "Practitioner/Practitioner-2525",
            "display": "Kyle Christian Ballard MD"
          }
        ],
        "valueQuantity": {
          "value": 138.3,
          "unit": "cm"
        }
      },
      "request": {
        "method": "PUT",
        "url": "http://localhost:8080/cqf-ruler/baseDstu3/Observation/Observation-37168"
      }
    },
    {
      "fullUrl": "http://localhost:8080/cqf-ruler/baseDstu3/Observation/Observation-37169",
      "resource": {
        "resourceType": "Observation",
        "id": "Observation-37169",
        "status": "final",
        "code": {
          "coding": [
            {
              "system": "http://loinc.org",
              "code": "29463-7",
              "display": "Weight"
            }
          ]
        },
        "subject": {
          "reference": "Patient/Patient-1128",
          "display": "Jessica Pauleen Campbell"
        },
        "context": {
          "reference": "Encounter/Encounter-299",
          "display": "Wellness Visit"
        },
        "effectiveDateTime": "1990-01-12T00:00:00-05:00",
        "performer": [
          {
            "reference": "Practitioner/Practitioner-2525",
            "display": "Kyle Christian Ballard MD"
          }
        ],
        "valueQuantity": {
          "value": 29.8,
          "unit": "kg"
        }
      },
      "request": {
        "method": "PUT",
        "url": "http://localhost:8080/cqf-ruler/baseDstu3/Observation/Observation-37169"
      }
    },
    {
      "fullUrl": "http://localhost:8080/cqf-ruler/baseDstu3/Observation/Observation-37170",
      "resource": {
        "resourceType": "Observation",
        "id": "Observation-37170",
        "status": "final",
        "code": {
          "coding": [
            {
              "system": "http://loinc.org",
              "code": "39156-5",
              "display": "BMI"
            }
          ]
        },
        "subject": {
          "reference": "Patient/Patient-1128",
          "display": "Jessica Pauleen Campbell"
        },
        "context": {
          "reference": "Encounter/Encounter-299",
          "display": "Wellness Visit"
        },
        "effectiveDateTime": "1990-01-12T00:00:00-05:00",
        "performer": [
          {
            "reference": "Practitioner/Practitioner-2525",
            "display": "Kyle Christian Ballard MD"
          }
        ],
        "valueQuantity": {
          "value": 15.580159660038825,
          "unit": "kg/m2"
        }
      },
      "request": {
        "method": "PUT",
        "url": "http://localhost:8080/cqf-ruler/baseDstu3/Observation/Observation-37170"
      }
    },
    {
      "fullUrl": "http://localhost:8080/cqf-ruler/baseDstu3/Observation/Observation-37171",
      "resource": {
        "resourceType": "Observation",
        "id": "Observation-37171",
        "status": "final",
        "code": {
          "coding": [
            {
              "system": "http://loinc.org",
              "code": "8310-5",
              "display": "Temperature"
            }
          ]
        },
        "subject": {
          "reference": "Patient/Patient-1128",
          "display": "Jessica Pauleen Campbell"
        },
        "context": {
          "reference": "Encounter/Encounter-299",
          "display": "Wellness Visit"
        },
        "effectiveDateTime": "1990-01-12T00:00:00-05:00",
        "performer": [
          {
            "reference": "Practitioner/Practitioner-2525",
            "display": "Kyle Christian Ballard MD"
          }
        ],
        "valueQuantity": {
          "value": 37.0,
          "unit": "C"
        }
      },
      "request": {
        "method": "PUT",
        "url": "http://localhost:8080/cqf-ruler/baseDstu3/Observation/Observation-37171"
      }
    },
    {
      "fullUrl": "http://localhost:8080/cqf-ruler/baseDstu3/Observation/Observation-37172",
      "resource": {
        "resourceType": "Observation",
        "id": "Observation-37172",
        "status": "final",
        "code": {
          "coding": [
            {
              "system": "http://loinc.org",
              "code": "8459-0",
              "display": "Systolic Blood Pressure"
            }
          ]
        },
        "subject": {
          "reference": "Patient/Patient-1128",
          "display": "Jessica Pauleen Campbell"
        },
        "context": {
          "reference": "Encounter/Encounter-299",
          "display": "Wellness Visit"
        },
        "effectiveDateTime": "1990-01-12T00:00:00-05:00",
        "performer": [
          {
            "reference": "Practitioner/Practitioner-2525",
            "display": "Kyle Christian Ballard MD"
          }
        ],
        "valueQuantity": {
          "value": 133.81796218682263,
          "unit": "mmHg"
        }
      },
      "request": {
        "method": "PUT",
        "url": "http://localhost:8080/cqf-ruler/baseDstu3/Observation/Observation-37172"
      }
    },
    {
      "fullUrl": "http://localhost:8080/cqf-ruler/baseDstu3/Observation/Observation-37173",
      "resource": {
        "resourceType": "Observation",
        "id": "Observation-37173",
        "status": "final",
        "code": {
          "coding": [
            {
              "system": "http://loinc.org",
              "code": "8453-3",
              "display": "Diastolic Blood Pressure"
            }
          ]
        },
        "subject": {
          "reference": "Patient/Patient-1128",
          "display": "Jessica Pauleen Campbell"
        },
        "context": {
          "reference": "Encounter/Encounter-299",
          "display": "Wellness Visit"
        },
        "effectiveDateTime": "1990-01-12T00:00:00-05:00",
        "performer": [
          {
            "reference": "Practitioner/Practitioner-2525",
            "display": "Kyle Christian Ballard MD"
          }
        ],
        "valueQuantity": {
          "value": 73.29062066918783,
          "unit": "mmHg"
        }
      },
      "request": {
        "method": "PUT",
        "url": "http://localhost:8080/cqf-ruler/baseDstu3/Observation/Observation-37173"
      }
    },
    {
      "fullUrl": "http://localhost:8080/cqf-ruler/baseDstu3/DiagnosticReport/DiagnosticReport-37167",
      "resource": {
        "resourceType": "DiagnosticReport",
        "id": "DiagnosticReport-37167",
        "meta": {
          "profile": [
            "http://hl7.org/fhir/us/hedis/StructureDefinition/hedis-diagnosticreport"
          ]
        },
        "status": "final",
        "category": {
          "coding": [
            {
              "system": "http://hl7.org/fhir/ValueSet/diagnostic-service-sections",
              "code": "LAB",
              "display": "Laboratory"
            }
          ]
        },
        "code": {
          "coding": [
            {
              "system": "http://loinc.org",
              "code": "8716-3",
              "display": "Vital Signs Panel"
            }
          ]
        },
        "subject": {
          "reference": "Patient/Patient-1128",
          "display": "Jessica Pauleen Campbell"
        },
        "context": {
          "reference": "Encounter/Encounter-299",
          "display": "Wellness Visit"
        },
        "effectivePeriod": {
          "start": "1990-01-12T00:00:00-05:00",
          "end": "1990-01-12T00:00:00-05:00"
        },
        "issued": "1990-01-12T00:00:00.000-05:00",
        "result": [
          {
            "reference": "Observation/Observation-37168",
            "display": "Height"
          },
          {
            "reference": "Observation/Observation-37169",
            "display": "Weight"
          },
          {
            "reference": "Observation/Observation-37170",
            "display": "BMI"
          },
          {
            "reference": "Observation/Observation-37171",
            "display": "Temperature"
          },
          {
            "reference": "Observation/Observation-37172",
            "display": "Systolic Blood Pressure"
          },
          {
            "reference": "Observation/Observation-37173",
            "display": "Diastolic Blood Pressure"
          }
        ]
      },
      "request": {
        "method": "PUT",
        "url": "http://localhost:8080/cqf-ruler/baseDstu3/DiagnosticReport/DiagnosticReport-37167"
      }
    }
  ]
}