{
  "resourceType": "Bundle",
  "id": "Terri Reilly Zavala-6497-Encounter-1334",
  "type": "transaction",
  "entry": [
    {
      "fullUrl": "http://localhost:8080/cqf-ruler/baseDstu3/Encounter/Encounter-1334",
      "resource": {
        "resourceType": "Encounter",
        "id": "Encounter-1334",
        "status": "finished",
        "class": {
          "system": "http://hl7.org/fhir/encounter-class",
          "code": "outpatient",
          "display": "Inpatient"
        },
        "subject": {
          "reference": "Patient/Patient-6497",
          "display": "Terri Reilly Zavala"
        },
        "participant": [
          {
            "period": {
              "start": "2002-05-24T13:00:00-04:00",
              "end": "2002-05-24T13:00:00-04:00"
            },
            "individual": {
              "reference": "Practitioner/Practitioner-2534",
              "display": "Pearl Rita Dawson MD"
            }
          }
        ],
        "period": {
          "start": "2002-05-24T13:00:00-04:00",
          "end": "2002-05-24T13:00:00-04:00"
        },
        "location": [
          {
            "location": {
              "reference": "Location/Location-1101",
              "display": "McKinley Health Center"
            }
          }
        ],
        "serviceProvider": {
          "reference": "Organization/Organization-1101",
          "display": "McKinley Health Center"
        }
      },
      "request": {
        "method": "PUT",
        "url": "http://localhost:8080/cqf-ruler/baseDstu3/Encounter/Encounter-1334"
      }
    },
    {
      "fullUrl": "http://localhost:8080/cqf-ruler/baseDstu3/Immunization/Immunization-261440",
      "resource": {
        "resourceType": "Immunization",
        "id": "Immunization-261440",
        "status": "completed",
        "notGiven": false,
        "vaccineCode": {
          "coding": [
            {
              "system": "http://hl7.org/fhir/sid/cvx",
              "code": "140",
              "display": "Influenza, seasonal, injectable, preservative free"
            }
          ]
        },
        "patient": {
          "reference": "Patient/Patient-6497",
          "display": "Terri Reilly Zavala"
        },
        "date": "2002-05-24T13:00:00-04:00",
        "primarySource": true,
        "location": {
          "reference": "Location/Location-1101",
          "display": "McKinley Health Center"
        },
        "practitioner": [
          {
            "actor": {
              "reference": "Practitioner/Practitioner-2534",
              "display": "Pearl Rita Dawson MD"
            }
          }
        ]
      },
      "request": {
        "method": "PUT",
        "url": "http://localhost:8080/cqf-ruler/baseDstu3/Immunization/Immunization-261440"
      }
    },
    {
      "fullUrl": "http://localhost:8080/cqf-ruler/baseDstu3/Immunization/Immunization-261441",
      "resource": {
        "resourceType": "Immunization",
        "id": "Immunization-261441",
        "status": "completed",
        "notGiven": false,
        "vaccineCode": {
          "coding": [
            {
              "system": "http://hl7.org/fhir/sid/cvx",
              "code": "114",
              "display": "meningococcal MCV4P"
            }
          ]
        },
        "patient": {
          "reference": "Patient/Patient-6497",
          "display": "Terri Reilly Zavala"
        },
        "date": "2002-05-24T13:00:00-04:00",
        "primarySource": true,
        "location": {
          "reference": "Location/Location-1101",
          "display": "McKinley Health Center"
        },
        "practitioner": [
          {
            "actor": {
              "reference": "Practitioner/Practitioner-2534",
              "display": "Pearl Rita Dawson MD"
            }
          }
        ]
      },
      "request": {
        "method": "PUT",
        "url": "http://localhost:8080/cqf-ruler/baseDstu3/Immunization/Immunization-261441"
      }
    },
    {
      "fullUrl": "http://localhost:8080/cqf-ruler/baseDstu3/Observation/Observation-283040",
      "resource": {
        "resourceType": "Observation",
        "id": "Observation-283040",
        "status": "final",
        "code": {
          "coding": [
            {
              "system": "http://loinc.org",
              "code": "8302-2",
              "display": "Height"
            }
          ]
        },
        "subject": {
          "reference": "Patient/Patient-6497",
          "display": "Terri Reilly Zavala"
        },
        "context": {
          "reference": "Encounter/Encounter-1334",
          "display": "McKinley Health Center"
        },
        "effectiveDateTime": "2002-05-24T13:00:00-04:00",
        "performer": [
          {
            "reference": "Practitioner/Practitioner-2534",
            "display": "Pearl Rita Dawson MD"
          }
        ],
        "valueQuantity": {
          "value": 171.2,
          "unit": "cm"
        }
      },
      "request": {
        "method": "PUT",
        "url": "http://localhost:8080/cqf-ruler/baseDstu3/Observation/Observation-283040"
      }
    },
    {
      "fullUrl": "http://localhost:8080/cqf-ruler/baseDstu3/Observation/Observation-283041",
      "resource": {
        "resourceType": "Observation",
        "id": "Observation-283041",
        "status": "final",
        "code": {
          "coding": [
            {
              "system": "http://loinc.org",
              "code": "29463-7",
              "display": "Weight"
            }
          ]
        },
        "subject": {
          "reference": "Patient/Patient-6497",
          "display": "Terri Reilly Zavala"
        },
        "context": {
          "reference": "Encounter/Encounter-1334",
          "display": "McKinley Health Center"
        },
        "effectiveDateTime": "2002-05-24T13:00:00-04:00",
        "performer": [
          {
            "reference": "Practitioner/Practitioner-2534",
            "display": "Pearl Rita Dawson MD"
          }
        ],
        "valueQuantity": {
          "value": 55.7327663385251,
          "unit": "kg"
        }
      },
      "request": {
        "method": "PUT",
        "url": "http://localhost:8080/cqf-ruler/baseDstu3/Observation/Observation-283041"
      }
    },
    {
      "fullUrl": "http://localhost:8080/cqf-ruler/baseDstu3/Observation/Observation-283042",
      "resource": {
        "resourceType": "Observation",
        "id": "Observation-283042",
        "status": "final",
        "code": {
          "coding": [
            {
              "system": "http://loinc.org",
              "code": "39156-5",
              "display": "BMI"
            }
          ]
        },
        "subject": {
          "reference": "Patient/Patient-6497",
          "display": "Terri Reilly Zavala"
        },
        "context": {
          "reference": "Encounter/Encounter-1334",
          "display": "McKinley Health Center"
        },
        "effectiveDateTime": "2002-05-24T13:00:00-04:00",
        "performer": [
          {
            "reference": "Practitioner/Practitioner-2534",
            "display": "Pearl Rita Dawson MD"
          }
        ],
        "valueQuantity": {
          "value": 19.015295528855244,
          "unit": "kg/m2"
        }
      },
      "request": {
        "method": "PUT",
        "url": "http://localhost:8080/cqf-ruler/baseDstu3/Observation/Observation-283042"
      }
    },
    {
      "fullUrl": "http://localhost:8080/cqf-ruler/baseDstu3/Observation/Observation-283043",
      "resource": {
        "resourceType": "Observation",
        "id": "Observation-283043",
        "status": "final",
        "code": {
          "coding": [
            {
              "system": "http://loinc.org",
              "code": "8310-5",
              "display": "Temperature"
            }
          ]
        },
        "subject": {
          "reference": "Patient/Patient-6497",
          "display": "Terri Reilly Zavala"
        },
        "context": {
          "reference": "Encounter/Encounter-1334",
          "display": "McKinley Health Center"
        },
        "effectiveDateTime": "2002-05-24T13:00:00-04:00",
        "performer": [
          {
            "reference": "Practitioner/Practitioner-2534",
            "display": "Pearl Rita Dawson MD"
          }
        ],
        "valueQuantity": {
          "value": 37.0,
          "unit": "C"
        }
      },
      "request": {
        "method": "PUT",
        "url": "http://localhost:8080/cqf-ruler/baseDstu3/Observation/Observation-283043"
      }
    },
    {
      "fullUrl": "http://localhost:8080/cqf-ruler/baseDstu3/Observation/Observation-283044",
      "resource": {
        "resourceType": "Observation",
        "id": "Observation-283044",
        "status": "final",
        "code": {
          "coding": [
            {
              "system": "http://loinc.org",
              "code": "8459-0",
              "display": "Systolic Blood Pressure"
            }
          ]
        },
        "subject": {
          "reference": "Patient/Patient-6497",
          "display": "Terri Reilly Zavala"
        },
        "context": {
          "reference": "Encounter/Encounter-1334",
          "display": "McKinley Health Center"
        },
        "effectiveDateTime": "2002-05-24T13:00:00-04:00",
        "performer": [
          {
            "reference": "Practitioner/Practitioner-2534",
            "display": "Pearl Rita Dawson MD"
          }
        ],
        "valueQuantity": {
          "value": 106.63040833014499,
          "unit": "mmHg"
        }
      },
      "request": {
        "method": "PUT",
        "url": "http://localhost:8080/cqf-ruler/baseDstu3/Observation/Observation-283044"
      }
    },
    {
      "fullUrl": "http://localhost:8080/cqf-ruler/baseDstu3/Observation/Observation-283045",
      "resource": {
        "resourceType": "Observation",
        "id": "Observation-283045",
        "status": "final",
        "code": {
          "coding": [
            {
              "system": "http://loinc.org",
              "code": "8453-3",
              "display": "Diastolic Blood Pressure"
            }
          ]
        },
        "subject": {
          "reference": "Patient/Patient-6497",
          "display": "Terri Reilly Zavala"
        },
        "context": {
          "reference": "Encounter/Encounter-1334",
          "display": "McKinley Health Center"
        },
        "effectiveDateTime": "2002-05-24T13:00:00-04:00",
        "performer": [
          {
            "reference": "Practitioner/Practitioner-2534",
            "display": "Pearl Rita Dawson MD"
          }
        ],
        "valueQuantity": {
          "value": 88.31456874042424,
          "unit": "mmHg"
        }
      },
      "request": {
        "method": "PUT",
        "url": "http://localhost:8080/cqf-ruler/baseDstu3/Observation/Observation-283045"
      }
    },
    {
      "fullUrl": "http://localhost:8080/cqf-ruler/baseDstu3/DiagnosticReport/DiagnosticReport-283039",
      "resource": {
        "resourceType": "DiagnosticReport",
        "id": "DiagnosticReport-283039",
        "status": "final",
        "code": {
          "coding": [
            {
              "system": "http://loinc.org",
              "code": "8716-3",
              "display": "Vital Signs Panel"
            }
          ]
        },
        "subject": {
          "reference": "Patient/Patient-6497",
          "display": "Terri Reilly Zavala"
        },
        "context": {
          "reference": "Encounter/Encounter-1334",
          "display": "McKinley Health Center"
        },
        "effectivePeriod": {
          "start": "2002-05-24T13:00:00-04:00",
          "end": "2002-05-24T13:00:00-04:00"
        },
        "issued": "2002-05-24T13:00:00.000-04:00",
        "result": [
          {
            "reference": "Observation/Observation-283040",
            "display": "Height"
          },
          {
            "reference": "Observation/Observation-283041",
            "display": "Weight"
          },
          {
            "reference": "Observation/Observation-283042",
            "display": "BMI"
          },
          {
            "reference": "Observation/Observation-283043",
            "display": "Temperature"
          },
          {
            "reference": "Observation/Observation-283044",
            "display": "Systolic Blood Pressure"
          },
          {
            "reference": "Observation/Observation-283045",
            "display": "Diastolic Blood Pressure"
          }
        ]
      },
      "request": {
        "method": "PUT",
        "url": "http://localhost:8080/cqf-ruler/baseDstu3/DiagnosticReport/DiagnosticReport-283039"
      }
    }
  ]
}