{
  "resourceType": "Bundle",
  "id": "Terri-Reilly-Zavala-6497-Encounter-350",
  "type": "transaction",
  "entry": [
    {
      "fullUrl": "http://localhost:8080/cqf-ruler/baseDstu3/Encounter/Encounter-350",
      "resource": {
        "resourceType": "Encounter",
        "id": "Encounter-350",
        "meta": {
          "profile": [
            "http://hl7.org/fhir/us/hedis/StructureDefinition/hedis-encounter"
          ]
        },
        "status": "finished",
        "class": {
          "system": "http://hl7.org/fhir/encounter-class",
          "code": "outpatient",
          "display": "Outpatient"
        },
        "type": [
          {
            "coding": [
              {
                "system": "http://snomed.info/sct",
                "code": "170258001",
                "display": "Wellness Visit"
              }
            ]
          }
        ],
        "subject": {
          "reference": "Patient/Patient-6497",
          "display": "Terri Reilly Zavala"
        },
        "participant": [
          {
            "period": {
              "start": "1990-07-06T00:00:00-04:00",
              "end": "1990-07-06T00:00:00-04:00"
            },
            "individual": {
              "reference": "Practitioner/Practitioner-2534",
              "display": "Pearl Rita Dawson MD"
            }
          }
        ],
        "period": {
          "start": "1990-07-06T00:00:00-04:00",
          "end": "1990-07-06T00:00:00-04:00"
        },
        "location": [
          {
            "location": {
              "reference": "Location/Location-1101",
              "display": "McKinley Health Center"
            }
          }
        ],
        "serviceProvider": {
          "reference": "Organization/Organization-1101",
          "display": "McKinley Health Center"
        }
      },
      "request": {
        "method": "PUT",
        "url": "http://localhost:8080/cqf-ruler/baseDstu3/Encounter/Encounter-350"
      }
    },
    {
      "fullUrl": "http://localhost:8080/cqf-ruler/baseDstu3/Immunization/Immunization-27072",
      "resource": {
        "resourceType": "Immunization",
        "id": "Immunization-27072",
        "status": "completed",
        "notGiven": false,
        "vaccineCode": {
          "coding": [
            {
              "system": "http://hl7.org/fhir/sid/cvx",
              "code": "140",
              "display": "Influenza, seasonal, injectable, preservative free"
            }
          ]
        },
        "patient": {
          "reference": "Patient/Patient-6497",
          "display": "Terri Reilly Zavala"
        },
        "date": "1990-07-06T00:00:00-04:00",
        "primarySource": true,
        "location": {
          "reference": "Location/Location-1101",
          "display": "McKinley Health Center"
        },
        "practitioner": [
          {
            "actor": {
              "reference": "Practitioner/Practitioner-2534",
              "display": "Pearl Rita Dawson MD"
            }
          }
        ]
      },
      "request": {
        "method": "PUT",
        "url": "http://localhost:8080/cqf-ruler/baseDstu3/Immunization/Immunization-27072"
      }
    },
    {
      "fullUrl": "http://localhost:8080/cqf-ruler/baseDstu3/Observation/Observation-45605",
      "resource": {
        "resourceType": "Observation",
        "id": "Observation-45605",
        "meta": {
          "profile": [
            "http://hl7.org/fhir/us/hedis/StructureDefinition/hedis-observation"
          ]
        },
        "status": "final",
        "code": {
          "coding": [
            {
              "system": "http://loinc.org",
              "code": "8480-6",
              "display": "Systolic blood pressure"
            }
          ]
        },
        "subject": {
          "reference": "Patient/Patient-6497",
          "display": "Terri Reilly Zavala"
        },
        "context": {
          "reference": "Encounter/Encounter-350",
          "display": "Wellness Visit"
        },
        "effectiveDateTime": "1990-07-06T00:00:00-04:00",
        "performer": [
          {
            "reference": "Practitioner/Practitioner-2534",
            "display": "Pearl Rita Dawson MD"
          }
        ],
        "valueQuantity": {
          "value": 148.0848151674933,
          "unit": "mmHg"
        }
      },
      "request": {
        "method": "PUT",
        "url": "http://localhost:8080/cqf-ruler/baseDstu3/Observation/Observation-45605"
      }
    },
    {
      "fullUrl": "http://localhost:8080/cqf-ruler/baseDstu3/Observation/Observation-45606",
      "resource": {
        "resourceType": "Observation",
        "id": "Observation-45606",
        "meta": {
          "profile": [
            "http://hl7.org/fhir/us/hedis/StructureDefinition/hedis-observation"
          ]
        },
        "status": "final",
        "code": {
          "coding": [
            {
              "system": "http://loinc.org",
              "code": "8462-4",
              "display": "Diastolic blood pressure"
            }
          ]
        },
        "subject": {
          "reference": "Patient/Patient-6497",
          "display": "Terri Reilly Zavala"
        },
        "context": {
          "reference": "Encounter/Encounter-350",
          "display": "Wellness Visit"
        },
        "effectiveDateTime": "1990-07-06T00:00:00-04:00",
        "performer": [
          {
            "reference": "Practitioner/Practitioner-2534",
            "display": "Pearl Rita Dawson MD"
          }
        ],
        "valueQuantity": {
          "value": 67.4091586940736,
          "unit": "mmHg"
        }
      },
      "request": {
        "method": "PUT",
        "url": "http://localhost:8080/cqf-ruler/baseDstu3/Observation/Observation-45606"
      }
    },
    {
      "fullUrl": "http://localhost:8080/cqf-ruler/baseDstu3/Condition/Condition-45607",
      "resource": {
        "resourceType": "Condition",
        "id": "Condition-45607",
        "meta": {
          "profile": [
            "http://hl7.org/fhir/us/hedis/StructureDefinition/hedis-condition"
          ]
        },
        "clinicalStatus": "active",
        "verificationStatus": "confirmed",
        "code": {
          "coding": [
            {
              "system": "TBD",
              "code": "TBD",
              "display": "TBD"
            }
          ]
        },
        "subject": {
          "reference": "Patient/Patient-6497",
          "display": "Terri Reilly Zavala"
        },
        "context": {
          "reference": "Encounter/Encounter-350",
          "display": "Wellness Visit"
        },
        "onsetDateTime": "1990-07-06T00:00:00-04:00",
        "assertedDate": "1990-07-06T00:00:00-04:00",
        "asserter": {
          "reference": "Practitioner/Practitioner-2534",
          "display": "Pearl Rita Dawson MD"
        }
      },
      "request": {
        "method": "PUT",
        "url": "http://localhost:8080/cqf-ruler/baseDstu3/Condition/Condition-45607"
      }
    },
    {
      "fullUrl": "http://localhost:8080/cqf-ruler/baseDstu3/Observation/Observation-45608",
      "resource": {
        "resourceType": "Observation",
        "id": "Observation-45608",
        "meta": {
          "profile": [
            "http://hl7.org/fhir/us/hedis/StructureDefinition/hedis-observation"
          ]
        },
        "status": "final",
        "code": {
          "coding": [
            {
              "system": "http://loinc.org",
              "code": "8302-2",
              "display": "Body Height"
            }
          ]
        },
        "subject": {
          "reference": "Patient/Patient-6497",
          "display": "Terri Reilly Zavala"
        },
        "context": {
          "reference": "Encounter/Encounter-350",
          "display": "Wellness Visit"
        },
        "effectiveDateTime": "1990-07-06T00:00:00-04:00",
        "performer": [
          {
            "reference": "Practitioner/Practitioner-2534",
            "display": "Pearl Rita Dawson MD"
          }
        ],
        "valueQuantity": {
          "value": 109.1,
          "unit": "cm"
        }
      },
      "request": {
        "method": "PUT",
        "url": "http://localhost:8080/cqf-ruler/baseDstu3/Observation/Observation-45608"
      }
    },
    {
      "fullUrl": "http://localhost:8080/cqf-ruler/baseDstu3/Observation/Observation-45609",
      "resource": {
        "resourceType": "Observation",
        "id": "Observation-45609",
        "meta": {
          "profile": [
            "http://hl7.org/fhir/us/hedis/StructureDefinition/hedis-observation"
          ]
        },
        "status": "final",
        "code": {
          "coding": [
            {
              "system": "http://loinc.org",
              "code": "29463-7",
              "display": "Body Weight"
            }
          ]
        },
        "subject": {
          "reference": "Patient/Patient-6497",
          "display": "Terri Reilly Zavala"
        },
        "context": {
          "reference": "Encounter/Encounter-350",
          "display": "Wellness Visit"
        },
        "effectiveDateTime": "1990-07-06T00:00:00-04:00",
        "performer": [
          {
            "reference": "Practitioner/Practitioner-2534",
            "display": "Pearl Rita Dawson MD"
          }
        ],
        "valueQuantity": {
          "value": 22.7,
          "unit": "kg"
        }
      },
      "request": {
        "method": "PUT",
        "url": "http://localhost:8080/cqf-ruler/baseDstu3/Observation/Observation-45609"
      }
    },
    {
      "fullUrl": "http://localhost:8080/cqf-ruler/baseDstu3/Observation/Observation-45610",
      "resource": {
        "resourceType": "Observation",
        "id": "Observation-45610",
        "meta": {
          "profile": [
            "http://hl7.org/fhir/us/hedis/StructureDefinition/hedis-observation"
          ]
        },
        "status": "final",
        "code": {
          "coding": [
            {
              "system": "http://loinc.org",
              "code": "39156-5",
              "display": "Body Mass Index"
            }
          ]
        },
        "subject": {
          "reference": "Patient/Patient-6497",
          "display": "Terri Reilly Zavala"
        },
        "context": {
          "reference": "Encounter/Encounter-350",
          "display": "Wellness Visit"
        },
        "effectiveDateTime": "1990-07-06T00:00:00-04:00",
        "performer": [
          {
            "reference": "Practitioner/Practitioner-2534",
            "display": "Pearl Rita Dawson MD"
          }
        ],
        "valueQuantity": {
          "value": 19.071126901966846,
          "unit": "kg/m2"
        }
      },
      "request": {
        "method": "PUT",
        "url": "http://localhost:8080/cqf-ruler/baseDstu3/Observation/Observation-45610"
      }
    },
    {
      "fullUrl": "http://localhost:8080/cqf-ruler/baseDstu3/Observation/Observation-45613",
      "resource": {
        "resourceType": "Observation",
        "id": "Observation-45613",
        "meta": {
          "profile": [
            "http://hl7.org/fhir/us/hedis/StructureDefinition/hedis-observation"
          ]
        },
        "status": "final",
        "code": {
          "coding": [
            {
              "system": "http://loinc.org",
              "code": "55284-4",
              "display": "Blood Pressure"
            }
          ]
        },
        "subject": {
          "reference": "Patient/Patient-6497",
          "display": "Terri Reilly Zavala"
        },
        "context": {
          "reference": "Encounter/Encounter-350",
          "display": "Wellness Visit"
        },
        "effectiveDateTime": "1990-07-06T00:00:00-04:00",
        "valueQuantity": {
          "value": 67.4091586940736,
          "unit": "mmHg"
        },
        "component": [
          {
            "code": {
              "coding": [
                {
                  "system": "http://loinc.org",
                  "code": "8480-6",
                  "display": "Systolic Blood Pressure"
                }
              ]
            }
          },
          {
            "code": {
              "coding": [
                {
                  "system": "http://loinc.org",
                  "code": "8462-4",
                  "display": "Diastolic Blood Pressure"
                }
              ]
            }
          }
        ]
      },
      "request": {
        "method": "PUT",
        "url": "http://localhost:8080/cqf-ruler/baseDstu3/Observation/Observation-45613"
      }
    },
    {
      "fullUrl": "http://localhost:8080/cqf-ruler/baseDstu3/Observation/Observation-45615",
      "resource": {
        "resourceType": "Observation",
        "id": "Observation-45615",
        "status": "final",
        "code": {
          "coding": [
            {
              "system": "http://loinc.org",
              "code": "8302-2",
              "display": "Height"
            }
          ]
        },
        "subject": {
          "reference": "Patient/Patient-6497",
          "display": "Terri Reilly Zavala"
        },
        "context": {
          "reference": "Encounter/Encounter-350",
          "display": "Wellness Visit"
        },
        "effectiveDateTime": "1990-07-06T00:00:00-04:00",
        "performer": [
          {
            "reference": "Practitioner/Practitioner-2534",
            "display": "Pearl Rita Dawson MD"
          }
        ],
        "valueQuantity": {
          "value": 109.1,
          "unit": "cm"
        }
      },
      "request": {
        "method": "PUT",
        "url": "http://localhost:8080/cqf-ruler/baseDstu3/Observation/Observation-45615"
      }
    },
    {
      "fullUrl": "http://localhost:8080/cqf-ruler/baseDstu3/Observation/Observation-45616",
      "resource": {
        "resourceType": "Observation",
        "id": "Observation-45616",
        "status": "final",
        "code": {
          "coding": [
            {
              "system": "http://loinc.org",
              "code": "29463-7",
              "display": "Weight"
            }
          ]
        },
        "subject": {
          "reference": "Patient/Patient-6497",
          "display": "Terri Reilly Zavala"
        },
        "context": {
          "reference": "Encounter/Encounter-350",
          "display": "Wellness Visit"
        },
        "effectiveDateTime": "1990-07-06T00:00:00-04:00",
        "performer": [
          {
            "reference": "Practitioner/Practitioner-2534",
            "display": "Pearl Rita Dawson MD"
          }
        ],
        "valueQuantity": {
          "value": 22.7,
          "unit": "kg"
        }
      },
      "request": {
        "method": "PUT",
        "url": "http://localhost:8080/cqf-ruler/baseDstu3/Observation/Observation-45616"
      }
    },
    {
      "fullUrl": "http://localhost:8080/cqf-ruler/baseDstu3/Observation/Observation-45617",
      "resource": {
        "resourceType": "Observation",
        "id": "Observation-45617",
        "status": "final",
        "code": {
          "coding": [
            {
              "system": "http://loinc.org",
              "code": "39156-5",
              "display": "BMI"
            }
          ]
        },
        "subject": {
          "reference": "Patient/Patient-6497",
          "display": "Terri Reilly Zavala"
        },
        "context": {
          "reference": "Encounter/Encounter-350",
          "display": "Wellness Visit"
        },
        "effectiveDateTime": "1990-07-06T00:00:00-04:00",
        "performer": [
          {
            "reference": "Practitioner/Practitioner-2534",
            "display": "Pearl Rita Dawson MD"
          }
        ],
        "valueQuantity": {
          "value": 19.071126901966846,
          "unit": "kg/m2"
        }
      },
      "request": {
        "method": "PUT",
        "url": "http://localhost:8080/cqf-ruler/baseDstu3/Observation/Observation-45617"
      }
    },
    {
      "fullUrl": "http://localhost:8080/cqf-ruler/baseDstu3/Observation/Observation-45618",
      "resource": {
        "resourceType": "Observation",
        "id": "Observation-45618",
        "status": "final",
        "code": {
          "coding": [
            {
              "system": "http://loinc.org",
              "code": "8310-5",
              "display": "Temperature"
            }
          ]
        },
        "subject": {
          "reference": "Patient/Patient-6497",
          "display": "Terri Reilly Zavala"
        },
        "context": {
          "reference": "Encounter/Encounter-350",
          "display": "Wellness Visit"
        },
        "effectiveDateTime": "1990-07-06T00:00:00-04:00",
        "performer": [
          {
            "reference": "Practitioner/Practitioner-2534",
            "display": "Pearl Rita Dawson MD"
          }
        ],
        "valueQuantity": {
          "value": 37.0,
          "unit": "C"
        }
      },
      "request": {
        "method": "PUT",
        "url": "http://localhost:8080/cqf-ruler/baseDstu3/Observation/Observation-45618"
      }
    },
    {
      "fullUrl": "http://localhost:8080/cqf-ruler/baseDstu3/Observation/Observation-45619",
      "resource": {
        "resourceType": "Observation",
        "id": "Observation-45619",
        "status": "final",
        "code": {
          "coding": [
            {
              "system": "http://loinc.org",
              "code": "8459-0",
              "display": "Systolic Blood Pressure"
            }
          ]
        },
        "subject": {
          "reference": "Patient/Patient-6497",
          "display": "Terri Reilly Zavala"
        },
        "context": {
          "reference": "Encounter/Encounter-350",
          "display": "Wellness Visit"
        },
        "effectiveDateTime": "1990-07-06T00:00:00-04:00",
        "performer": [
          {
            "reference": "Practitioner/Practitioner-2534",
            "display": "Pearl Rita Dawson MD"
          }
        ],
        "valueQuantity": {
          "value": 148.0848151674933,
          "unit": "mmHg"
        }
      },
      "request": {
        "method": "PUT",
        "url": "http://localhost:8080/cqf-ruler/baseDstu3/Observation/Observation-45619"
      }
    },
    {
      "fullUrl": "http://localhost:8080/cqf-ruler/baseDstu3/Observation/Observation-45620",
      "resource": {
        "resourceType": "Observation",
        "id": "Observation-45620",
        "status": "final",
        "code": {
          "coding": [
            {
              "system": "http://loinc.org",
              "code": "8453-3",
              "display": "Diastolic Blood Pressure"
            }
          ]
        },
        "subject": {
          "reference": "Patient/Patient-6497",
          "display": "Terri Reilly Zavala"
        },
        "context": {
          "reference": "Encounter/Encounter-350",
          "display": "Wellness Visit"
        },
        "effectiveDateTime": "1990-07-06T00:00:00-04:00",
        "performer": [
          {
            "reference": "Practitioner/Practitioner-2534",
            "display": "Pearl Rita Dawson MD"
          }
        ],
        "valueQuantity": {
          "value": 67.4091586940736,
          "unit": "mmHg"
        }
      },
      "request": {
        "method": "PUT",
        "url": "http://localhost:8080/cqf-ruler/baseDstu3/Observation/Observation-45620"
      }
    },
    {
      "fullUrl": "http://localhost:8080/cqf-ruler/baseDstu3/DiagnosticReport/DiagnosticReport-45614",
      "resource": {
        "resourceType": "DiagnosticReport",
        "id": "DiagnosticReport-45614",
        "meta": {
          "profile": [
            "http://hl7.org/fhir/us/hedis/StructureDefinition/hedis-diagnosticreport"
          ]
        },
        "status": "final",
        "category": {
          "coding": [
            {
              "system": "http://hl7.org/fhir/ValueSet/diagnostic-service-sections",
              "code": "LAB",
              "display": "Laboratory"
            }
          ]
        },
        "code": {
          "coding": [
            {
              "system": "http://loinc.org",
              "code": "8716-3",
              "display": "Vital Signs Panel"
            }
          ]
        },
        "subject": {
          "reference": "Patient/Patient-6497",
          "display": "Terri Reilly Zavala"
        },
        "context": {
          "reference": "Encounter/Encounter-350",
          "display": "Wellness Visit"
        },
        "effectivePeriod": {
          "start": "1990-07-06T00:00:00-04:00",
          "end": "1990-07-06T00:00:00-04:00"
        },
        "issued": "1990-07-06T00:00:00.000-04:00",
        "result": [
          {
            "reference": "Observation/Observation-45615",
            "display": "Height"
          },
          {
            "reference": "Observation/Observation-45616",
            "display": "Weight"
          },
          {
            "reference": "Observation/Observation-45617",
            "display": "BMI"
          },
          {
            "reference": "Observation/Observation-45618",
            "display": "Temperature"
          },
          {
            "reference": "Observation/Observation-45619",
            "display": "Systolic Blood Pressure"
          },
          {
            "reference": "Observation/Observation-45620",
            "display": "Diastolic Blood Pressure"
          }
        ]
      },
      "request": {
        "method": "PUT",
        "url": "http://localhost:8080/cqf-ruler/baseDstu3/DiagnosticReport/DiagnosticReport-45614"
      }
    }
  ]
}