{
  "resourceType": "Bundle",
  "id": "Terri-Reilly-Zavala-6497-Encounter-919",
  "type": "transaction",
  "entry": [
    {
      "fullUrl": "http://localhost:8080/cqf-ruler/baseDstu3/Encounter/Encounter-919",
      "resource": {
        "resourceType": "Encounter",
        "id": "Encounter-919",
        "status": "finished",
        "class": {
          "system": "http://hl7.org/fhir/encounter-class",
          "code": "outpatient",
          "display": "Inpatient"
        },
        "subject": {
          "reference": "Patient/Patient-6497",
          "display": "Terri Reilly Zavala"
        },
        "participant": [
          {
            "period": {
              "start": "1997-10-10T00:00:00-04:00",
              "end": "1997-10-10T00:00:00-04:00"
            },
            "individual": {
              "reference": "Practitioner/Practitioner-2534",
              "display": "Pearl Rita Dawson MD"
            }
          }
        ],
        "period": {
          "start": "1997-10-10T00:00:00-04:00",
          "end": "1997-10-10T00:00:00-04:00"
        },
        "location": [
          {
            "location": {
              "reference": "Location/Location-1101",
              "display": "McKinley Health Center"
            }
          }
        ],
        "serviceProvider": {
          "reference": "Organization/Organization-1101",
          "display": "McKinley Health Center"
        }
      },
      "request": {
        "method": "PUT",
        "url": "http://localhost:8080/cqf-ruler/baseDstu3/Encounter/Encounter-919"
      }
    },
    {
      "fullUrl": "http://localhost:8080/cqf-ruler/baseDstu3/Immunization/Immunization-172128",
      "resource": {
        "resourceType": "Immunization",
        "id": "Immunization-172128",
        "status": "completed",
        "notGiven": false,
        "vaccineCode": {
          "coding": [
            {
              "system": "http://hl7.org/fhir/sid/cvx",
              "code": "140",
              "display": "Influenza, seasonal, injectable, preservative free"
            }
          ]
        },
        "patient": {
          "reference": "Patient/Patient-6497",
          "display": "Terri Reilly Zavala"
        },
        "date": "1997-10-10T00:00:00-04:00",
        "primarySource": true,
        "location": {
          "reference": "Location/Location-1101",
          "display": "McKinley Health Center"
        },
        "practitioner": [
          {
            "actor": {
              "reference": "Practitioner/Practitioner-2534",
              "display": "Pearl Rita Dawson MD"
            }
          }
        ]
      },
      "request": {
        "method": "PUT",
        "url": "http://localhost:8080/cqf-ruler/baseDstu3/Immunization/Immunization-172128"
      }
    },
    {
      "fullUrl": "http://localhost:8080/cqf-ruler/baseDstu3/Immunization/Immunization-172129",
      "resource": {
        "resourceType": "Immunization",
        "id": "Immunization-172129",
        "status": "completed",
        "notGiven": false,
        "vaccineCode": {
          "coding": [
            {
              "system": "http://hl7.org/fhir/sid/cvx",
              "code": "62",
              "display": "HPV, quadrivalent"
            }
          ]
        },
        "patient": {
          "reference": "Patient/Patient-6497",
          "display": "Terri Reilly Zavala"
        },
        "date": "1997-10-10T00:00:00-04:00",
        "primarySource": true,
        "location": {
          "reference": "Location/Location-1101",
          "display": "McKinley Health Center"
        },
        "practitioner": [
          {
            "actor": {
              "reference": "Practitioner/Practitioner-2534",
              "display": "Pearl Rita Dawson MD"
            }
          }
        ]
      },
      "request": {
        "method": "PUT",
        "url": "http://localhost:8080/cqf-ruler/baseDstu3/Immunization/Immunization-172129"
      }
    },
    {
      "fullUrl": "http://localhost:8080/cqf-ruler/baseDstu3/Immunization/Immunization-172130",
      "resource": {
        "resourceType": "Immunization",
        "id": "Immunization-172130",
        "status": "completed",
        "notGiven": false,
        "vaccineCode": {
          "coding": [
            {
              "system": "http://hl7.org/fhir/sid/cvx",
              "code": "114",
              "display": "meningococcal MCV4P"
            }
          ]
        },
        "patient": {
          "reference": "Patient/Patient-6497",
          "display": "Terri Reilly Zavala"
        },
        "date": "1997-10-10T00:00:00-04:00",
        "primarySource": true,
        "location": {
          "reference": "Location/Location-1101",
          "display": "McKinley Health Center"
        },
        "practitioner": [
          {
            "actor": {
              "reference": "Practitioner/Practitioner-2534",
              "display": "Pearl Rita Dawson MD"
            }
          }
        ]
      },
      "request": {
        "method": "PUT",
        "url": "http://localhost:8080/cqf-ruler/baseDstu3/Immunization/Immunization-172130"
      }
    },
    {
      "fullUrl": "http://localhost:8080/cqf-ruler/baseDstu3/Immunization/Immunization-172131",
      "resource": {
        "resourceType": "Immunization",
        "id": "Immunization-172131",
        "status": "completed",
        "notGiven": false,
        "vaccineCode": {
          "coding": [
            {
              "system": "http://hl7.org/fhir/sid/cvx",
              "code": "115",
              "display": "Tdap"
            }
          ]
        },
        "patient": {
          "reference": "Patient/Patient-6497",
          "display": "Terri Reilly Zavala"
        },
        "date": "1997-10-10T00:00:00-04:00",
        "primarySource": true,
        "location": {
          "reference": "Location/Location-1101",
          "display": "McKinley Health Center"
        },
        "practitioner": [
          {
            "actor": {
              "reference": "Practitioner/Practitioner-2534",
              "display": "Pearl Rita Dawson MD"
            }
          }
        ]
      },
      "request": {
        "method": "PUT",
        "url": "http://localhost:8080/cqf-ruler/baseDstu3/Immunization/Immunization-172131"
      }
    },
    {
      "fullUrl": "http://localhost:8080/cqf-ruler/baseDstu3/Observation/Observation-193949",
      "resource": {
        "resourceType": "Observation",
        "id": "Observation-193949",
        "status": "final",
        "code": {
          "coding": [
            {
              "system": "http://loinc.org",
              "code": "8480-6",
              "display": "Systolic blood pressure"
            }
          ]
        },
        "subject": {
          "reference": "Patient/Patient-6497",
          "display": "Terri Reilly Zavala"
        },
        "context": {
          "reference": "Encounter/Encounter-919",
          "display": "Wellness Visit"
        },
        "effectivePeriod": {
          "start": "1997-10-10T00:00:00-04:00",
          "end": "1997-10-10T00:00:00-04:00"
        },
        "performer": [
          {
            "reference": "Practitioner/Practitioner-2534",
            "display": "Pearl Rita Dawson MD"
          }
        ],
        "valueQuantity": {
          "value": 111.19376272354461,
          "unit": "mmHg"
        }
      },
      "request": {
        "method": "PUT",
        "url": "http://localhost:8080/cqf-ruler/baseDstu3/Observation/Observation-193949"
      }
    },
    {
      "fullUrl": "http://localhost:8080/cqf-ruler/baseDstu3/Observation/Observation-193950",
      "resource": {
        "resourceType": "Observation",
        "id": "Observation-193950",
        "status": "final",
        "code": {
          "coding": [
            {
              "system": "http://loinc.org",
              "code": "8462-4",
              "display": "Diastolic blood pressure"
            }
          ]
        },
        "subject": {
          "reference": "Patient/Patient-6497",
          "display": "Terri Reilly Zavala"
        },
        "context": {
          "reference": "Encounter/Encounter-919",
          "display": "Wellness Visit"
        },
        "effectivePeriod": {
          "start": "1997-10-10T00:00:00-04:00",
          "end": "1997-10-10T00:00:00-04:00"
        },
        "performer": [
          {
            "reference": "Practitioner/Practitioner-2534",
            "display": "Pearl Rita Dawson MD"
          }
        ],
        "valueQuantity": {
          "value": 87.6687568353947,
          "unit": "mmHg"
        }
      },
      "request": {
        "method": "PUT",
        "url": "http://localhost:8080/cqf-ruler/baseDstu3/Observation/Observation-193950"
      }
    },
    {
      "fullUrl": "http://localhost:8080/cqf-ruler/baseDstu3/Observation/Observation-193951",
      "resource": {
        "resourceType": "Observation",
        "id": "Observation-193951",
        "status": "final",
        "code": {
          "coding": [
            {
              "system": "http://loinc.org",
              "code": "8302-2",
              "display": "Body Height"
            }
          ]
        },
        "subject": {
          "reference": "Patient/Patient-6497",
          "display": "Terri Reilly Zavala"
        },
        "context": {
          "reference": "Encounter/Encounter-919",
          "display": "Wellness Visit"
        },
        "effectivePeriod": {
          "start": "1997-10-10T00:00:00-04:00",
          "end": "1997-10-10T00:00:00-04:00"
        },
        "performer": [
          {
            "reference": "Practitioner/Practitioner-2534",
            "display": "Pearl Rita Dawson MD"
          }
        ],
        "valueQuantity": {
          "value": 154.8,
          "unit": "cm"
        }
      },
      "request": {
        "method": "PUT",
        "url": "http://localhost:8080/cqf-ruler/baseDstu3/Observation/Observation-193951"
      }
    },
    {
      "fullUrl": "http://localhost:8080/cqf-ruler/baseDstu3/Observation/Observation-193952",
      "resource": {
        "resourceType": "Observation",
        "id": "Observation-193952",
        "status": "final",
        "code": {
          "coding": [
            {
              "system": "http://loinc.org",
              "code": "29463-7",
              "display": "Body Weight"
            }
          ]
        },
        "subject": {
          "reference": "Patient/Patient-6497",
          "display": "Terri Reilly Zavala"
        },
        "context": {
          "reference": "Encounter/Encounter-919",
          "display": "Wellness Visit"
        },
        "effectivePeriod": {
          "start": "1997-10-10T00:00:00-04:00",
          "end": "1997-10-10T00:00:00-04:00"
        },
        "performer": [
          {
            "reference": "Practitioner/Practitioner-2534",
            "display": "Pearl Rita Dawson MD"
          }
        ],
        "valueQuantity": {
          "value": 58.7,
          "unit": "kg"
        }
      },
      "request": {
        "method": "PUT",
        "url": "http://localhost:8080/cqf-ruler/baseDstu3/Observation/Observation-193952"
      }
    },
    {
      "fullUrl": "http://localhost:8080/cqf-ruler/baseDstu3/Observation/Observation-193953",
      "resource": {
        "resourceType": "Observation",
        "id": "Observation-193953",
        "status": "final",
        "code": {
          "coding": [
            {
              "system": "http://loinc.org",
              "code": "39156-5",
              "display": "Body Mass Index"
            }
          ]
        },
        "subject": {
          "reference": "Patient/Patient-6497",
          "display": "Terri Reilly Zavala"
        },
        "context": {
          "reference": "Encounter/Encounter-919",
          "display": "Wellness Visit"
        },
        "effectivePeriod": {
          "start": "1997-10-10T00:00:00-04:00",
          "end": "1997-10-10T00:00:00-04:00"
        },
        "performer": [
          {
            "reference": "Practitioner/Practitioner-2534",
            "display": "Pearl Rita Dawson MD"
          }
        ],
        "valueQuantity": {
          "value": 24.496057261516068,
          "unit": "kg/m2"
        }
      },
      "request": {
        "method": "PUT",
        "url": "http://localhost:8080/cqf-ruler/baseDstu3/Observation/Observation-193953"
      }
    },
    {
      "fullUrl": "http://localhost:8080/cqf-ruler/baseDstu3/Observation/Observation-193956",
      "resource": {
        "resourceType": "Observation",
        "id": "Observation-193956",
        "status": "final",
        "category": [
          {
            "coding": [
              {
                "system": "http://hl7.org/fhir/observation-category",
                "code": "vital-signs",
                "display": "vital-signs"
              }
            ]
          }
        ],
        "code": {
          "coding": [
            {
              "system": "http://loinc.org",
              "code": "55284-4",
              "display": "Blood Pressure"
            }
          ]
        },
        "subject": {
          "reference": "Patient/Patient-6497",
          "display": "Terri Reilly Zavala"
        },
        "context": {
          "reference": "Encounter/Encounter-919",
          "display": "Wellness Visit"
        },
        "effectivePeriod": {
          "start": "1997-10-10T00:00:00-04:00",
          "end": "1997-10-10T00:00:00-04:00"
        },
        "valueQuantity": {
          "value": 87.6687568353947,
          "unit": "mmHg"
        },
        "component": [
          {
            "code": {
              "coding": [
                {
                  "system": "http://loinc.org",
                  "code": "8480-6",
                  "display": "Systolic Blood Pressure"
                }
              ]
            }
          },
          {
            "code": {
              "coding": [
                {
                  "system": "http://loinc.org",
                  "code": "8462-4",
                  "display": "Diastolic Blood Pressure"
                }
              ]
            }
          }
        ]
      },
      "request": {
        "method": "PUT",
        "url": "http://localhost:8080/cqf-ruler/baseDstu3/Observation/Observation-193956"
      }
    },
    {
      "fullUrl": "http://localhost:8080/cqf-ruler/baseDstu3/Observation/Observation-193958",
      "resource": {
        "resourceType": "Observation",
        "id": "Observation-193958",
        "status": "final",
        "code": {
          "coding": [
            {
              "system": "http://loinc.org",
              "code": "8302-2",
              "display": "Height"
            }
          ]
        },
        "subject": {
          "reference": "Patient/Patient-6497",
          "display": "Terri Reilly Zavala"
        },
        "context": {
          "reference": "Encounter/Encounter-919",
          "display": "Wellness Visit"
        },
        "effectiveDateTime": "1997-10-10T00:00:00-04:00",
        "performer": [
          {
            "reference": "Practitioner/Practitioner-2534",
            "display": "Pearl Rita Dawson MD"
          }
        ],
        "valueQuantity": {
          "value": 154.8,
          "unit": "cm"
        }
      },
      "request": {
        "method": "PUT",
        "url": "http://localhost:8080/cqf-ruler/baseDstu3/Observation/Observation-193958"
      }
    },
    {
      "fullUrl": "http://localhost:8080/cqf-ruler/baseDstu3/Observation/Observation-193959",
      "resource": {
        "resourceType": "Observation",
        "id": "Observation-193959",
        "status": "final",
        "code": {
          "coding": [
            {
              "system": "http://loinc.org",
              "code": "29463-7",
              "display": "Weight"
            }
          ]
        },
        "subject": {
          "reference": "Patient/Patient-6497",
          "display": "Terri Reilly Zavala"
        },
        "context": {
          "reference": "Encounter/Encounter-919",
          "display": "Wellness Visit"
        },
        "effectiveDateTime": "1997-10-10T00:00:00-04:00",
        "performer": [
          {
            "reference": "Practitioner/Practitioner-2534",
            "display": "Pearl Rita Dawson MD"
          }
        ],
        "valueQuantity": {
          "value": 58.7,
          "unit": "kg"
        }
      },
      "request": {
        "method": "PUT",
        "url": "http://localhost:8080/cqf-ruler/baseDstu3/Observation/Observation-193959"
      }
    },
    {
      "fullUrl": "http://localhost:8080/cqf-ruler/baseDstu3/Observation/Observation-193960",
      "resource": {
        "resourceType": "Observation",
        "id": "Observation-193960",
        "status": "final",
        "code": {
          "coding": [
            {
              "system": "http://loinc.org",
              "code": "39156-5",
              "display": "BMI"
            }
          ]
        },
        "subject": {
          "reference": "Patient/Patient-6497",
          "display": "Terri Reilly Zavala"
        },
        "context": {
          "reference": "Encounter/Encounter-919",
          "display": "Wellness Visit"
        },
        "effectiveDateTime": "1997-10-10T00:00:00-04:00",
        "performer": [
          {
            "reference": "Practitioner/Practitioner-2534",
            "display": "Pearl Rita Dawson MD"
          }
        ],
        "valueQuantity": {
          "value": 24.496057261516068,
          "unit": "kg/m2"
        }
      },
      "request": {
        "method": "PUT",
        "url": "http://localhost:8080/cqf-ruler/baseDstu3/Observation/Observation-193960"
      }
    },
    {
      "fullUrl": "http://localhost:8080/cqf-ruler/baseDstu3/Observation/Observation-193961",
      "resource": {
        "resourceType": "Observation",
        "id": "Observation-193961",
        "status": "final",
        "code": {
          "coding": [
            {
              "system": "http://loinc.org",
              "code": "8310-5",
              "display": "Temperature"
            }
          ]
        },
        "subject": {
          "reference": "Patient/Patient-6497",
          "display": "Terri Reilly Zavala"
        },
        "context": {
          "reference": "Encounter/Encounter-919",
          "display": "Wellness Visit"
        },
        "effectiveDateTime": "1997-10-10T00:00:00-04:00",
        "performer": [
          {
            "reference": "Practitioner/Practitioner-2534",
            "display": "Pearl Rita Dawson MD"
          }
        ],
        "valueQuantity": {
          "value": 37.0,
          "unit": "C"
        }
      },
      "request": {
        "method": "PUT",
        "url": "http://localhost:8080/cqf-ruler/baseDstu3/Observation/Observation-193961"
      }
    },
    {
      "fullUrl": "http://localhost:8080/cqf-ruler/baseDstu3/Observation/Observation-193962",
      "resource": {
        "resourceType": "Observation",
        "id": "Observation-193962",
        "status": "final",
        "code": {
          "coding": [
            {
              "system": "http://loinc.org",
              "code": "8459-0",
              "display": "Systolic Blood Pressure"
            }
          ]
        },
        "subject": {
          "reference": "Patient/Patient-6497",
          "display": "Terri Reilly Zavala"
        },
        "context": {
          "reference": "Encounter/Encounter-919",
          "display": "Wellness Visit"
        },
        "effectiveDateTime": "1997-10-10T00:00:00-04:00",
        "performer": [
          {
            "reference": "Practitioner/Practitioner-2534",
            "display": "Pearl Rita Dawson MD"
          }
        ],
        "valueQuantity": {
          "value": 111.19376272354461,
          "unit": "mmHg"
        }
      },
      "request": {
        "method": "PUT",
        "url": "http://localhost:8080/cqf-ruler/baseDstu3/Observation/Observation-193962"
      }
    },
    {
      "fullUrl": "http://localhost:8080/cqf-ruler/baseDstu3/Observation/Observation-193963",
      "resource": {
        "resourceType": "Observation",
        "id": "Observation-193963",
        "status": "final",
        "code": {
          "coding": [
            {
              "system": "http://loinc.org",
              "code": "8453-3",
              "display": "Diastolic Blood Pressure"
            }
          ]
        },
        "subject": {
          "reference": "Patient/Patient-6497",
          "display": "Terri Reilly Zavala"
        },
        "context": {
          "reference": "Encounter/Encounter-919",
          "display": "Wellness Visit"
        },
        "effectiveDateTime": "1997-10-10T00:00:00-04:00",
        "performer": [
          {
            "reference": "Practitioner/Practitioner-2534",
            "display": "Pearl Rita Dawson MD"
          }
        ],
        "valueQuantity": {
          "value": 87.6687568353947,
          "unit": "mmHg"
        }
      },
      "request": {
        "method": "PUT",
        "url": "http://localhost:8080/cqf-ruler/baseDstu3/Observation/Observation-193963"
      }
    },
    {
      "fullUrl": "http://localhost:8080/cqf-ruler/baseDstu3/DiagnosticReport/DiagnosticReport-193957",
      "resource": {
        "resourceType": "DiagnosticReport",
        "id": "DiagnosticReport-193957",
        "status": "final",
        "code": {
          "coding": [
            {
              "system": "http://loinc.org",
              "code": "8716-3",
              "display": "Vital Signs Panel"
            }
          ]
        },
        "subject": {
          "reference": "Patient/Patient-6497",
          "display": "Terri Reilly Zavala"
        },
        "context": {
          "reference": "Encounter/Encounter-919",
          "display": "Wellness Visit"
        },
        "effectivePeriod": {
          "start": "1997-10-10T00:00:00-04:00",
          "end": "1997-10-10T00:00:00-04:00"
        },
        "issued": "1997-10-10T00:00:00.000-04:00",
        "result": [
          {
            "reference": "Observation/Observation-193958",
            "display": "Height"
          },
          {
            "reference": "Observation/Observation-193959",
            "display": "Weight"
          },
          {
            "reference": "Observation/Observation-193960",
            "display": "BMI"
          },
          {
            "reference": "Observation/Observation-193961",
            "display": "Temperature"
          },
          {
            "reference": "Observation/Observation-193962",
            "display": "Systolic Blood Pressure"
          },
          {
            "reference": "Observation/Observation-193963",
            "display": "Diastolic Blood Pressure"
          }
        ]
      },
      "request": {
        "method": "PUT",
        "url": "http://localhost:8080/cqf-ruler/baseDstu3/DiagnosticReport/DiagnosticReport-193957"
      }
    }
  ]
}