{
  "resourceType": "Bundle",
  "id": "Edith Elaine Brandt-6532-Encounter-1028",
  "type": "transaction",
  "entry": [
    {
      "fullUrl": "http://localhost:8080/cqf-ruler/baseDstu3/Encounter/Encounter-1028",
      "resource": {
        "resourceType": "Encounter",
        "id": "Encounter-1028",
        "status": "finished",
        "class": {
          "system": "http://hl7.org/fhir/encounter-class",
          "code": "outpatient",
          "display": "Inpatient"
        },
        "subject": {
          "reference": "Patient/Patient-6532",
          "display": "Edith Elaine Brandt"
        },
        "participant": [
          {
            "period": {
              "start": "1998-07-14T01:00:00-04:00",
              "end": "1998-07-14T01:00:00-04:00"
            },
            "individual": {
              "reference": "Practitioner/Practitioner-2529",
              "display": "Stanley Floyd Nielsen MD"
            }
          }
        ],
        "period": {
          "start": "1998-07-14T01:00:00-04:00",
          "end": "1998-07-14T01:00:00-04:00"
        },
        "location": [
          {
            "location": {
              "reference": "Location/Location-1102",
              "display": "Pediatric and Adult Medicine"
            }
          }
        ],
        "serviceProvider": {
          "reference": "Organization/Organization-1102",
          "display": "Pediatric and Adult Medicine"
        }
      },
      "request": {
        "method": "PUT",
        "url": "http://localhost:8080/cqf-ruler/baseDstu3/Encounter/Encounter-1028"
      }
    },
    {
      "fullUrl": "http://localhost:8080/cqf-ruler/baseDstu3/Immunization/Immunization-183200",
      "resource": {
        "resourceType": "Immunization",
        "id": "Immunization-183200",
        "status": "completed",
        "notGiven": false,
        "vaccineCode": {
          "coding": [
            {
              "system": "http://hl7.org/fhir/sid/cvx",
              "code": "140",
              "display": "Influenza, seasonal, injectable, preservative free"
            }
          ]
        },
        "patient": {
          "reference": "Patient/Patient-6532",
          "display": "Edith Elaine Brandt"
        },
        "date": "1998-07-14T01:00:00-04:00",
        "primarySource": true,
        "location": {
          "reference": "Location/Location-1102",
          "display": "Pediatric and Adult Medicine"
        },
        "practitioner": [
          {
            "actor": {
              "reference": "Practitioner/Practitioner-2529",
              "display": "Stanley Floyd Nielsen MD"
            }
          }
        ]
      },
      "request": {
        "method": "PUT",
        "url": "http://localhost:8080/cqf-ruler/baseDstu3/Immunization/Immunization-183200"
      }
    },
    {
      "fullUrl": "http://localhost:8080/cqf-ruler/baseDstu3/Immunization/Immunization-183201",
      "resource": {
        "resourceType": "Immunization",
        "id": "Immunization-183201",
        "status": "completed",
        "notGiven": false,
        "vaccineCode": {
          "coding": [
            {
              "system": "http://hl7.org/fhir/sid/cvx",
              "code": "62",
              "display": "HPV, quadrivalent"
            }
          ]
        },
        "patient": {
          "reference": "Patient/Patient-6532",
          "display": "Edith Elaine Brandt"
        },
        "date": "1998-07-14T01:00:00-04:00",
        "primarySource": true,
        "location": {
          "reference": "Location/Location-1102",
          "display": "Pediatric and Adult Medicine"
        },
        "practitioner": [
          {
            "actor": {
              "reference": "Practitioner/Practitioner-2529",
              "display": "Stanley Floyd Nielsen MD"
            }
          }
        ]
      },
      "request": {
        "method": "PUT",
        "url": "http://localhost:8080/cqf-ruler/baseDstu3/Immunization/Immunization-183201"
      }
    },
    {
      "fullUrl": "http://localhost:8080/cqf-ruler/baseDstu3/Immunization/Immunization-183202",
      "resource": {
        "resourceType": "Immunization",
        "id": "Immunization-183202",
        "status": "completed",
        "notGiven": false,
        "vaccineCode": {
          "coding": [
            {
              "system": "http://hl7.org/fhir/sid/cvx",
              "code": "114",
              "display": "meningococcal MCV4P"
            }
          ]
        },
        "patient": {
          "reference": "Patient/Patient-6532",
          "display": "Edith Elaine Brandt"
        },
        "date": "1998-07-14T01:00:00-04:00",
        "primarySource": true,
        "location": {
          "reference": "Location/Location-1102",
          "display": "Pediatric and Adult Medicine"
        },
        "practitioner": [
          {
            "actor": {
              "reference": "Practitioner/Practitioner-2529",
              "display": "Stanley Floyd Nielsen MD"
            }
          }
        ]
      },
      "request": {
        "method": "PUT",
        "url": "http://localhost:8080/cqf-ruler/baseDstu3/Immunization/Immunization-183202"
      }
    },
    {
      "fullUrl": "http://localhost:8080/cqf-ruler/baseDstu3/Immunization/Immunization-183203",
      "resource": {
        "resourceType": "Immunization",
        "id": "Immunization-183203",
        "status": "completed",
        "notGiven": false,
        "vaccineCode": {
          "coding": [
            {
              "system": "http://hl7.org/fhir/sid/cvx",
              "code": "115",
              "display": "Tdap"
            }
          ]
        },
        "patient": {
          "reference": "Patient/Patient-6532",
          "display": "Edith Elaine Brandt"
        },
        "date": "1998-07-14T01:00:00-04:00",
        "primarySource": true,
        "location": {
          "reference": "Location/Location-1102",
          "display": "Pediatric and Adult Medicine"
        },
        "practitioner": [
          {
            "actor": {
              "reference": "Practitioner/Practitioner-2529",
              "display": "Stanley Floyd Nielsen MD"
            }
          }
        ]
      },
      "request": {
        "method": "PUT",
        "url": "http://localhost:8080/cqf-ruler/baseDstu3/Immunization/Immunization-183203"
      }
    },
    {
      "fullUrl": "http://localhost:8080/cqf-ruler/baseDstu3/Observation/Observation-203254",
      "resource": {
        "resourceType": "Observation",
        "id": "Observation-203254",
        "status": "final",
        "code": {
          "coding": [
            {
              "system": "http://loinc.org",
              "code": "8302-2",
              "display": "Height"
            }
          ]
        },
        "subject": {
          "reference": "Patient/Patient-6532",
          "display": "Edith Elaine Brandt"
        },
        "context": {
          "reference": "Encounter/Encounter-1028",
          "display": "Pediatric and Adult Medicine"
        },
        "effectiveDateTime": "1998-07-14T01:00:00-04:00",
        "performer": [
          {
            "reference": "Practitioner/Practitioner-2529",
            "display": "Stanley Floyd Nielsen MD"
          }
        ],
        "valueQuantity": {
          "value": 134.0,
          "unit": "cm"
        }
      },
      "request": {
        "method": "PUT",
        "url": "http://localhost:8080/cqf-ruler/baseDstu3/Observation/Observation-203254"
      }
    },
    {
      "fullUrl": "http://localhost:8080/cqf-ruler/baseDstu3/Observation/Observation-203255",
      "resource": {
        "resourceType": "Observation",
        "id": "Observation-203255",
        "status": "final",
        "code": {
          "coding": [
            {
              "system": "http://loinc.org",
              "code": "29463-7",
              "display": "Weight"
            }
          ]
        },
        "subject": {
          "reference": "Patient/Patient-6532",
          "display": "Edith Elaine Brandt"
        },
        "context": {
          "reference": "Encounter/Encounter-1028",
          "display": "Pediatric and Adult Medicine"
        },
        "effectiveDateTime": "1998-07-14T01:00:00-04:00",
        "performer": [
          {
            "reference": "Practitioner/Practitioner-2529",
            "display": "Stanley Floyd Nielsen MD"
          }
        ],
        "valueQuantity": {
          "value": 36.7,
          "unit": "kg"
        }
      },
      "request": {
        "method": "PUT",
        "url": "http://localhost:8080/cqf-ruler/baseDstu3/Observation/Observation-203255"
      }
    },
    {
      "fullUrl": "http://localhost:8080/cqf-ruler/baseDstu3/Observation/Observation-203256",
      "resource": {
        "resourceType": "Observation",
        "id": "Observation-203256",
        "status": "final",
        "code": {
          "coding": [
            {
              "system": "http://loinc.org",
              "code": "39156-5",
              "display": "BMI"
            }
          ]
        },
        "subject": {
          "reference": "Patient/Patient-6532",
          "display": "Edith Elaine Brandt"
        },
        "context": {
          "reference": "Encounter/Encounter-1028",
          "display": "Pediatric and Adult Medicine"
        },
        "effectiveDateTime": "1998-07-14T01:00:00-04:00",
        "performer": [
          {
            "reference": "Practitioner/Practitioner-2529",
            "display": "Stanley Floyd Nielsen MD"
          }
        ],
        "valueQuantity": {
          "value": 20.43885052350189,
          "unit": "kg/m2"
        }
      },
      "request": {
        "method": "PUT",
        "url": "http://localhost:8080/cqf-ruler/baseDstu3/Observation/Observation-203256"
      }
    },
    {
      "fullUrl": "http://localhost:8080/cqf-ruler/baseDstu3/Observation/Observation-203257",
      "resource": {
        "resourceType": "Observation",
        "id": "Observation-203257",
        "status": "final",
        "code": {
          "coding": [
            {
              "system": "http://loinc.org",
              "code": "8310-5",
              "display": "Temperature"
            }
          ]
        },
        "subject": {
          "reference": "Patient/Patient-6532",
          "display": "Edith Elaine Brandt"
        },
        "context": {
          "reference": "Encounter/Encounter-1028",
          "display": "Pediatric and Adult Medicine"
        },
        "effectiveDateTime": "1998-07-14T01:00:00-04:00",
        "performer": [
          {
            "reference": "Practitioner/Practitioner-2529",
            "display": "Stanley Floyd Nielsen MD"
          }
        ],
        "valueQuantity": {
          "value": 37.0,
          "unit": "C"
        }
      },
      "request": {
        "method": "PUT",
        "url": "http://localhost:8080/cqf-ruler/baseDstu3/Observation/Observation-203257"
      }
    },
    {
      "fullUrl": "http://localhost:8080/cqf-ruler/baseDstu3/Observation/Observation-203258",
      "resource": {
        "resourceType": "Observation",
        "id": "Observation-203258",
        "status": "final",
        "code": {
          "coding": [
            {
              "system": "http://loinc.org",
              "code": "8459-0",
              "display": "Systolic Blood Pressure"
            }
          ]
        },
        "subject": {
          "reference": "Patient/Patient-6532",
          "display": "Edith Elaine Brandt"
        },
        "context": {
          "reference": "Encounter/Encounter-1028",
          "display": "Pediatric and Adult Medicine"
        },
        "effectiveDateTime": "1998-07-14T01:00:00-04:00",
        "performer": [
          {
            "reference": "Practitioner/Practitioner-2529",
            "display": "Stanley Floyd Nielsen MD"
          }
        ],
        "valueQuantity": {
          "value": 124.70263381078708,
          "unit": "mmHg"
        }
      },
      "request": {
        "method": "PUT",
        "url": "http://localhost:8080/cqf-ruler/baseDstu3/Observation/Observation-203258"
      }
    },
    {
      "fullUrl": "http://localhost:8080/cqf-ruler/baseDstu3/Observation/Observation-203259",
      "resource": {
        "resourceType": "Observation",
        "id": "Observation-203259",
        "status": "final",
        "code": {
          "coding": [
            {
              "system": "http://loinc.org",
              "code": "8453-3",
              "display": "Diastolic Blood Pressure"
            }
          ]
        },
        "subject": {
          "reference": "Patient/Patient-6532",
          "display": "Edith Elaine Brandt"
        },
        "context": {
          "reference": "Encounter/Encounter-1028",
          "display": "Pediatric and Adult Medicine"
        },
        "effectiveDateTime": "1998-07-14T01:00:00-04:00",
        "performer": [
          {
            "reference": "Practitioner/Practitioner-2529",
            "display": "Stanley Floyd Nielsen MD"
          }
        ],
        "valueQuantity": {
          "value": 88.16489950104359,
          "unit": "mmHg"
        }
      },
      "request": {
        "method": "PUT",
        "url": "http://localhost:8080/cqf-ruler/baseDstu3/Observation/Observation-203259"
      }
    },
    {
      "fullUrl": "http://localhost:8080/cqf-ruler/baseDstu3/DiagnosticReport/DiagnosticReport-203253",
      "resource": {
        "resourceType": "DiagnosticReport",
        "id": "DiagnosticReport-203253",
        "status": "final",
        "code": {
          "coding": [
            {
              "system": "http://loinc.org",
              "code": "8716-3",
              "display": "Vital Signs Panel"
            }
          ]
        },
        "subject": {
          "reference": "Patient/Patient-6532",
          "display": "Edith Elaine Brandt"
        },
        "context": {
          "reference": "Encounter/Encounter-1028",
          "display": "Pediatric and Adult Medicine"
        },
        "effectivePeriod": {
          "start": "1998-07-14T01:00:00-04:00",
          "end": "1998-07-14T01:00:00-04:00"
        },
        "issued": "1998-07-14T01:00:00.000-04:00",
        "result": [
          {
            "reference": "Observation/Observation-203254",
            "display": "Height"
          },
          {
            "reference": "Observation/Observation-203255",
            "display": "Weight"
          },
          {
            "reference": "Observation/Observation-203256",
            "display": "BMI"
          },
          {
            "reference": "Observation/Observation-203257",
            "display": "Temperature"
          },
          {
            "reference": "Observation/Observation-203258",
            "display": "Systolic Blood Pressure"
          },
          {
            "reference": "Observation/Observation-203259",
            "display": "Diastolic Blood Pressure"
          }
        ]
      },
      "request": {
        "method": "PUT",
        "url": "http://localhost:8080/cqf-ruler/baseDstu3/DiagnosticReport/DiagnosticReport-203253"
      }
    }
  ]
}