{
  "resourceType": "Bundle",
  "id": "Edith Elaine Brandt-6532-Encounter-1587",
  "type": "transaction",
  "entry": [
    {
      "fullUrl": "http://localhost:8080/cqf-ruler/baseDstu3/Encounter/Encounter-1587",
      "resource": {
        "resourceType": "Encounter",
        "id": "Encounter-1587",
        "status": "finished",
        "class": {
          "system": "http://hl7.org/fhir/encounter-class",
          "code": "outpatient",
          "display": "Inpatient"
        },
        "subject": {
          "reference": "Patient/Patient-6532",
          "display": "Edith Elaine Brandt"
        },
        "participant": [
          {
            "period": {
              "start": "2005-07-12T01:00:00-04:00",
              "end": "2005-07-12T01:00:00-04:00"
            },
            "individual": {
              "reference": "Practitioner/Practitioner-2529",
              "display": "Stanley Floyd Nielsen MD"
            }
          }
        ],
        "period": {
          "start": "2005-07-12T01:00:00-04:00",
          "end": "2005-07-12T01:00:00-04:00"
        },
        "location": [
          {
            "location": {
              "reference": "Location/Location-1102",
              "display": "Pediatric and Adult Medicine"
            }
          }
        ],
        "serviceProvider": {
          "reference": "Organization/Organization-1102",
          "display": "Pediatric and Adult Medicine"
        }
      },
      "request": {
        "method": "PUT",
        "url": "http://localhost:8080/cqf-ruler/baseDstu3/Encounter/Encounter-1587"
      }
    },
    {
      "fullUrl": "http://localhost:8080/cqf-ruler/baseDstu3/Immunization/Immunization-328788",
      "resource": {
        "resourceType": "Immunization",
        "id": "Immunization-328788",
        "status": "completed",
        "notGiven": false,
        "vaccineCode": {
          "coding": [
            {
              "system": "http://hl7.org/fhir/sid/cvx",
              "code": "140",
              "display": "Influenza, seasonal, injectable, preservative free"
            }
          ]
        },
        "patient": {
          "reference": "Patient/Patient-6532",
          "display": "Edith Elaine Brandt"
        },
        "date": "2005-07-12T01:00:00-04:00",
        "primarySource": true,
        "location": {
          "reference": "Location/Location-1102",
          "display": "Pediatric and Adult Medicine"
        },
        "practitioner": [
          {
            "actor": {
              "reference": "Practitioner/Practitioner-2529",
              "display": "Stanley Floyd Nielsen MD"
            }
          }
        ]
      },
      "request": {
        "method": "PUT",
        "url": "http://localhost:8080/cqf-ruler/baseDstu3/Immunization/Immunization-328788"
      }
    },
    {
      "fullUrl": "http://localhost:8080/cqf-ruler/baseDstu3/Observation/Observation-350237",
      "resource": {
        "resourceType": "Observation",
        "id": "Observation-350237",
        "status": "final",
        "code": {
          "coding": [
            {
              "system": "http://loinc.org",
              "code": "8302-2",
              "display": "Height"
            }
          ]
        },
        "subject": {
          "reference": "Patient/Patient-6532",
          "display": "Edith Elaine Brandt"
        },
        "context": {
          "reference": "Encounter/Encounter-1587",
          "display": "Pediatric and Adult Medicine"
        },
        "effectiveDateTime": "2005-07-12T01:00:00-04:00",
        "performer": [
          {
            "reference": "Practitioner/Practitioner-2529",
            "display": "Stanley Floyd Nielsen MD"
          }
        ],
        "valueQuantity": {
          "value": 154.8,
          "unit": "cm"
        }
      },
      "request": {
        "method": "PUT",
        "url": "http://localhost:8080/cqf-ruler/baseDstu3/Observation/Observation-350237"
      }
    },
    {
      "fullUrl": "http://localhost:8080/cqf-ruler/baseDstu3/Observation/Observation-350238",
      "resource": {
        "resourceType": "Observation",
        "id": "Observation-350238",
        "status": "final",
        "code": {
          "coding": [
            {
              "system": "http://loinc.org",
              "code": "29463-7",
              "display": "Weight"
            }
          ]
        },
        "subject": {
          "reference": "Patient/Patient-6532",
          "display": "Edith Elaine Brandt"
        },
        "context": {
          "reference": "Encounter/Encounter-1587",
          "display": "Pediatric and Adult Medicine"
        },
        "effectiveDateTime": "2005-07-12T01:00:00-04:00",
        "performer": [
          {
            "reference": "Practitioner/Practitioner-2529",
            "display": "Stanley Floyd Nielsen MD"
          }
        ],
        "valueQuantity": {
          "value": 56.1,
          "unit": "kg"
        }
      },
      "request": {
        "method": "PUT",
        "url": "http://localhost:8080/cqf-ruler/baseDstu3/Observation/Observation-350238"
      }
    },
    {
      "fullUrl": "http://localhost:8080/cqf-ruler/baseDstu3/Observation/Observation-350239",
      "resource": {
        "resourceType": "Observation",
        "id": "Observation-350239",
        "status": "final",
        "code": {
          "coding": [
            {
              "system": "http://loinc.org",
              "code": "39156-5",
              "display": "BMI"
            }
          ]
        },
        "subject": {
          "reference": "Patient/Patient-6532",
          "display": "Edith Elaine Brandt"
        },
        "context": {
          "reference": "Encounter/Encounter-1587",
          "display": "Pediatric and Adult Medicine"
        },
        "effectiveDateTime": "2005-07-12T01:00:00-04:00",
        "performer": [
          {
            "reference": "Practitioner/Practitioner-2529",
            "display": "Stanley Floyd Nielsen MD"
          }
        ],
        "valueQuantity": {
          "value": 23.411053021653345,
          "unit": "kg/m2"
        }
      },
      "request": {
        "method": "PUT",
        "url": "http://localhost:8080/cqf-ruler/baseDstu3/Observation/Observation-350239"
      }
    },
    {
      "fullUrl": "http://localhost:8080/cqf-ruler/baseDstu3/Observation/Observation-350240",
      "resource": {
        "resourceType": "Observation",
        "id": "Observation-350240",
        "status": "final",
        "code": {
          "coding": [
            {
              "system": "http://loinc.org",
              "code": "8310-5",
              "display": "Temperature"
            }
          ]
        },
        "subject": {
          "reference": "Patient/Patient-6532",
          "display": "Edith Elaine Brandt"
        },
        "context": {
          "reference": "Encounter/Encounter-1587",
          "display": "Pediatric and Adult Medicine"
        },
        "effectiveDateTime": "2005-07-12T01:00:00-04:00",
        "performer": [
          {
            "reference": "Practitioner/Practitioner-2529",
            "display": "Stanley Floyd Nielsen MD"
          }
        ],
        "valueQuantity": {
          "value": 37.0,
          "unit": "C"
        }
      },
      "request": {
        "method": "PUT",
        "url": "http://localhost:8080/cqf-ruler/baseDstu3/Observation/Observation-350240"
      }
    },
    {
      "fullUrl": "http://localhost:8080/cqf-ruler/baseDstu3/Observation/Observation-350241",
      "resource": {
        "resourceType": "Observation",
        "id": "Observation-350241",
        "status": "final",
        "code": {
          "coding": [
            {
              "system": "http://loinc.org",
              "code": "8459-0",
              "display": "Systolic Blood Pressure"
            }
          ]
        },
        "subject": {
          "reference": "Patient/Patient-6532",
          "display": "Edith Elaine Brandt"
        },
        "context": {
          "reference": "Encounter/Encounter-1587",
          "display": "Pediatric and Adult Medicine"
        },
        "effectiveDateTime": "2005-07-12T01:00:00-04:00",
        "performer": [
          {
            "reference": "Practitioner/Practitioner-2529",
            "display": "Stanley Floyd Nielsen MD"
          }
        ],
        "valueQuantity": {
          "value": 124.10902450076162,
          "unit": "mmHg"
        }
      },
      "request": {
        "method": "PUT",
        "url": "http://localhost:8080/cqf-ruler/baseDstu3/Observation/Observation-350241"
      }
    },
    {
      "fullUrl": "http://localhost:8080/cqf-ruler/baseDstu3/Observation/Observation-350242",
      "resource": {
        "resourceType": "Observation",
        "id": "Observation-350242",
        "status": "final",
        "code": {
          "coding": [
            {
              "system": "http://loinc.org",
              "code": "8453-3",
              "display": "Diastolic Blood Pressure"
            }
          ]
        },
        "subject": {
          "reference": "Patient/Patient-6532",
          "display": "Edith Elaine Brandt"
        },
        "context": {
          "reference": "Encounter/Encounter-1587",
          "display": "Pediatric and Adult Medicine"
        },
        "effectiveDateTime": "2005-07-12T01:00:00-04:00",
        "performer": [
          {
            "reference": "Practitioner/Practitioner-2529",
            "display": "Stanley Floyd Nielsen MD"
          }
        ],
        "valueQuantity": {
          "value": 88.05302395699515,
          "unit": "mmHg"
        }
      },
      "request": {
        "method": "PUT",
        "url": "http://localhost:8080/cqf-ruler/baseDstu3/Observation/Observation-350242"
      }
    },
    {
      "fullUrl": "http://localhost:8080/cqf-ruler/baseDstu3/DiagnosticReport/DiagnosticReport-350236",
      "resource": {
        "resourceType": "DiagnosticReport",
        "id": "DiagnosticReport-350236",
        "status": "final",
        "code": {
          "coding": [
            {
              "system": "http://loinc.org",
              "code": "8716-3",
              "display": "Vital Signs Panel"
            }
          ]
        },
        "subject": {
          "reference": "Patient/Patient-6532",
          "display": "Edith Elaine Brandt"
        },
        "context": {
          "reference": "Encounter/Encounter-1587",
          "display": "Pediatric and Adult Medicine"
        },
        "effectivePeriod": {
          "start": "2005-07-12T01:00:00-04:00",
          "end": "2005-07-12T01:00:00-04:00"
        },
        "issued": "2005-07-12T01:00:00.000-04:00",
        "result": [
          {
            "reference": "Observation/Observation-350237",
            "display": "Height"
          },
          {
            "reference": "Observation/Observation-350238",
            "display": "Weight"
          },
          {
            "reference": "Observation/Observation-350239",
            "display": "BMI"
          },
          {
            "reference": "Observation/Observation-350240",
            "display": "Temperature"
          },
          {
            "reference": "Observation/Observation-350241",
            "display": "Systolic Blood Pressure"
          },
          {
            "reference": "Observation/Observation-350242",
            "display": "Diastolic Blood Pressure"
          }
        ]
      },
      "request": {
        "method": "PUT",
        "url": "http://localhost:8080/cqf-ruler/baseDstu3/DiagnosticReport/DiagnosticReport-350236"
      }
    }
  ]
}