{
  "resourceType": "Bundle",
  "id": "Trudy Mae Campbell-1130-Encounter-2114",
  "type": "transaction",
  "entry": [
    {
      "fullUrl": "http://localhost:8080/cqf-ruler/baseDstu3/Encounter/Encounter-2114",
      "resource": {
        "resourceType": "Encounter",
        "id": "Encounter-2114",
        "status": "finished",
        "class": {
          "system": "http://hl7.org/fhir/encounter-class",
          "code": "outpatient",
          "display": "Inpatient"
        },
        "subject": {
          "reference": "Patient/Patient-1130",
          "display": "Trudy Mae Campbell"
        },
        "participant": [
          {
            "period": {
              "start": "2010-07-26T11:00:00-04:00",
              "end": "2010-07-26T11:00:00-04:00"
            },
            "individual": {
              "reference": "Practitioner/Practitioner-2526",
              "display": "James Woodward Wilkins MD"
            }
          }
        ],
        "period": {
          "start": "2010-07-26T11:00:00-04:00",
          "end": "2010-07-26T11:00:00-04:00"
        },
        "location": [
          {
            "location": {
              "reference": "Location/Location-1105",
              "display": "Bayside Medical Group"
            }
          }
        ],
        "serviceProvider": {
          "reference": "Organization/Organization-1105",
          "display": "Bayside Medical Group"
        }
      },
      "request": {
        "method": "PUT",
        "url": "http://localhost:8080/cqf-ruler/baseDstu3/Encounter/Encounter-2114"
      }
    },
    {
      "fullUrl": "http://localhost:8080/cqf-ruler/baseDstu3/Observation/Observation-461449",
      "resource": {
        "resourceType": "Observation",
        "id": "Observation-461449",
        "status": "final",
        "code": {
          "coding": [
            {
              "system": "http://loinc.org",
              "code": "8302-2",
              "display": "Height"
            }
          ]
        },
        "subject": {
          "reference": "Patient/Patient-1130",
          "display": "Trudy Mae Campbell"
        },
        "context": {
          "reference": "Encounter/Encounter-2114",
          "display": "Bayside Medical Group"
        },
        "effectiveDateTime": "2010-07-26T11:00:00-04:00",
        "performer": [
          {
            "reference": "Practitioner/Practitioner-2526",
            "display": "James Woodward Wilkins MD"
          }
        ],
        "valueQuantity": {
          "value": 0.0,
          "unit": "cm"
        }
      },
      "request": {
        "method": "PUT",
        "url": "http://localhost:8080/cqf-ruler/baseDstu3/Observation/Observation-461449"
      }
    },
    {
      "fullUrl": "http://localhost:8080/cqf-ruler/baseDstu3/Observation/Observation-461450",
      "resource": {
        "resourceType": "Observation",
        "id": "Observation-461450",
        "status": "final",
        "code": {
          "coding": [
            {
              "system": "http://loinc.org",
              "code": "29463-7",
              "display": "Weight"
            }
          ]
        },
        "subject": {
          "reference": "Patient/Patient-1130",
          "display": "Trudy Mae Campbell"
        },
        "context": {
          "reference": "Encounter/Encounter-2114",
          "display": "Bayside Medical Group"
        },
        "effectiveDateTime": "2010-07-26T11:00:00-04:00",
        "performer": [
          {
            "reference": "Practitioner/Practitioner-2526",
            "display": "James Woodward Wilkins MD"
          }
        ],
        "valueQuantity": {
          "value": 0.0,
          "unit": "kg"
        }
      },
      "request": {
        "method": "PUT",
        "url": "http://localhost:8080/cqf-ruler/baseDstu3/Observation/Observation-461450"
      }
    },
    {
      "fullUrl": "http://localhost:8080/cqf-ruler/baseDstu3/Observation/Observation-461451",
      "resource": {
        "resourceType": "Observation",
        "id": "Observation-461451",
        "status": "final",
        "code": {
          "coding": [
            {
              "system": "http://loinc.org",
              "code": "39156-5",
              "display": "BMI"
            }
          ]
        },
        "subject": {
          "reference": "Patient/Patient-1130",
          "display": "Trudy Mae Campbell"
        },
        "context": {
          "reference": "Encounter/Encounter-2114",
          "display": "Bayside Medical Group"
        },
        "effectiveDateTime": "2010-07-26T11:00:00-04:00",
        "performer": [
          {
            "reference": "Practitioner/Practitioner-2526",
            "display": "James Woodward Wilkins MD"
          }
        ],
        "valueQuantity": {
          "value": 0.0,
          "unit": "kg/m2"
        }
      },
      "request": {
        "method": "PUT",
        "url": "http://localhost:8080/cqf-ruler/baseDstu3/Observation/Observation-461451"
      }
    },
    {
      "fullUrl": "http://localhost:8080/cqf-ruler/baseDstu3/Observation/Observation-461452",
      "resource": {
        "resourceType": "Observation",
        "id": "Observation-461452",
        "status": "final",
        "code": {
          "coding": [
            {
              "system": "http://loinc.org",
              "code": "8310-5",
              "display": "Temperature"
            }
          ]
        },
        "subject": {
          "reference": "Patient/Patient-1130",
          "display": "Trudy Mae Campbell"
        },
        "context": {
          "reference": "Encounter/Encounter-2114",
          "display": "Bayside Medical Group"
        },
        "effectiveDateTime": "2010-07-26T11:00:00-04:00",
        "performer": [
          {
            "reference": "Practitioner/Practitioner-2526",
            "display": "James Woodward Wilkins MD"
          }
        ],
        "valueQuantity": {
          "value": 37.0,
          "unit": "C"
        }
      },
      "request": {
        "method": "PUT",
        "url": "http://localhost:8080/cqf-ruler/baseDstu3/Observation/Observation-461452"
      }
    },
    {
      "fullUrl": "http://localhost:8080/cqf-ruler/baseDstu3/Observation/Observation-461453",
      "resource": {
        "resourceType": "Observation",
        "id": "Observation-461453",
        "status": "final",
        "code": {
          "coding": [
            {
              "system": "http://loinc.org",
              "code": "8459-0",
              "display": "Systolic Blood Pressure"
            }
          ]
        },
        "subject": {
          "reference": "Patient/Patient-1130",
          "display": "Trudy Mae Campbell"
        },
        "context": {
          "reference": "Encounter/Encounter-2114",
          "display": "Bayside Medical Group"
        },
        "effectiveDateTime": "2010-07-26T11:00:00-04:00",
        "performer": [
          {
            "reference": "Practitioner/Practitioner-2526",
            "display": "James Woodward Wilkins MD"
          }
        ],
        "valueQuantity": {
          "value": 116.96202474291219,
          "unit": "mmHg"
        }
      },
      "request": {
        "method": "PUT",
        "url": "http://localhost:8080/cqf-ruler/baseDstu3/Observation/Observation-461453"
      }
    },
    {
      "fullUrl": "http://localhost:8080/cqf-ruler/baseDstu3/Observation/Observation-461454",
      "resource": {
        "resourceType": "Observation",
        "id": "Observation-461454",
        "status": "final",
        "code": {
          "coding": [
            {
              "system": "http://loinc.org",
              "code": "8453-3",
              "display": "Diastolic Blood Pressure"
            }
          ]
        },
        "subject": {
          "reference": "Patient/Patient-1130",
          "display": "Trudy Mae Campbell"
        },
        "context": {
          "reference": "Encounter/Encounter-2114",
          "display": "Bayside Medical Group"
        },
        "effectiveDateTime": "2010-07-26T11:00:00-04:00",
        "performer": [
          {
            "reference": "Practitioner/Practitioner-2526",
            "display": "James Woodward Wilkins MD"
          }
        ],
        "valueQuantity": {
          "value": 79.29676801410054,
          "unit": "mmHg"
        }
      },
      "request": {
        "method": "PUT",
        "url": "http://localhost:8080/cqf-ruler/baseDstu3/Observation/Observation-461454"
      }
    },
    {
      "fullUrl": "http://localhost:8080/cqf-ruler/baseDstu3/DiagnosticReport/DiagnosticReport-461448",
      "resource": {
        "resourceType": "DiagnosticReport",
        "id": "DiagnosticReport-461448",
        "status": "final",
        "code": {
          "coding": [
            {
              "system": "http://loinc.org",
              "code": "8716-3",
              "display": "Vital Signs Panel"
            }
          ]
        },
        "subject": {
          "reference": "Patient/Patient-1130",
          "display": "Trudy Mae Campbell"
        },
        "context": {
          "reference": "Encounter/Encounter-2114",
          "display": "Bayside Medical Group"
        },
        "effectivePeriod": {
          "start": "2010-07-26T11:00:00-04:00",
          "end": "2010-07-26T11:00:00-04:00"
        },
        "issued": "2010-07-26T11:00:00.000-04:00",
        "result": [
          {
            "reference": "Observation/Observation-461449",
            "display": "Height"
          },
          {
            "reference": "Observation/Observation-461450",
            "display": "Weight"
          },
          {
            "reference": "Observation/Observation-461451",
            "display": "BMI"
          },
          {
            "reference": "Observation/Observation-461452",
            "display": "Temperature"
          },
          {
            "reference": "Observation/Observation-461453",
            "display": "Systolic Blood Pressure"
          },
          {
            "reference": "Observation/Observation-461454",
            "display": "Diastolic Blood Pressure"
          }
        ]
      },
      "request": {
        "method": "PUT",
        "url": "http://localhost:8080/cqf-ruler/baseDstu3/DiagnosticReport/DiagnosticReport-461448"
      }
    }
  ]
}