{
  "resourceType": "Bundle",
  "id": "Trudy-Mae-Campbell-1130-Encounter-2224",
  "type": "transaction",
  "entry": [
    {
      "fullUrl": "http://localhost:8080/cqf-ruler/baseDstu3/Encounter/Encounter-2224",
      "resource": {
        "resourceType": "Encounter",
        "id": "Encounter-2224",
        "status": "finished",
        "class": {
          "system": "http://hl7.org/fhir/encounter-class",
          "code": "outpatient",
          "display": "Inpatient"
        },
        "subject": {
          "reference": "Patient/Patient-1130",
          "display": "Trudy Mae Campbell"
        },
        "participant": [
          {
            "period": {
              "start": "2010-11-26T00:00:00-05:00",
              "end": "2010-11-26T00:00:00-05:00"
            },
            "individual": {
              "reference": "Practitioner/Practitioner-2526",
              "display": "James Woodward Wilkins MD"
            }
          }
        ],
        "period": {
          "start": "2010-11-26T00:00:00-05:00",
          "end": "2010-11-26T00:00:00-05:00"
        },
        "location": [
          {
            "location": {
              "reference": "Location/Location-1105",
              "display": "Bayside Medical Group"
            }
          }
        ],
        "serviceProvider": {
          "reference": "Organization/Organization-1105",
          "display": "Bayside Medical Group"
        }
      },
      "request": {
        "method": "PUT",
        "url": "http://localhost:8080/cqf-ruler/baseDstu3/Encounter/Encounter-2224"
      }
    },
    {
      "fullUrl": "http://localhost:8080/cqf-ruler/baseDstu3/Observation/Observation-487158",
      "resource": {
        "resourceType": "Observation",
        "id": "Observation-487158",
        "status": "final",
        "code": {
          "coding": [
            {
              "system": "http://loinc.org",
              "code": "8480-6",
              "display": "Systolic blood pressure"
            }
          ]
        },
        "subject": {
          "reference": "Patient/Patient-1130",
          "display": "Trudy Mae Campbell"
        },
        "context": {
          "reference": "Encounter/Encounter-2224",
          "display": "Wellness Visit"
        },
        "effectivePeriod": {
          "start": "2010-11-26T00:00:00-05:00",
          "end": "2010-11-26T00:00:00-05:00"
        },
        "performer": [
          {
            "reference": "Practitioner/Practitioner-2526",
            "display": "James Woodward Wilkins MD"
          }
        ],
        "valueQuantity": {
          "value": 167.80924316806954,
          "unit": "mmHg"
        }
      },
      "request": {
        "method": "PUT",
        "url": "http://localhost:8080/cqf-ruler/baseDstu3/Observation/Observation-487158"
      }
    },
    {
      "fullUrl": "http://localhost:8080/cqf-ruler/baseDstu3/Observation/Observation-487159",
      "resource": {
        "resourceType": "Observation",
        "id": "Observation-487159",
        "status": "final",
        "code": {
          "coding": [
            {
              "system": "http://loinc.org",
              "code": "8462-4",
              "display": "Diastolic blood pressure"
            }
          ]
        },
        "subject": {
          "reference": "Patient/Patient-1130",
          "display": "Trudy Mae Campbell"
        },
        "context": {
          "reference": "Encounter/Encounter-2224",
          "display": "Wellness Visit"
        },
        "effectivePeriod": {
          "start": "2010-11-26T00:00:00-05:00",
          "end": "2010-11-26T00:00:00-05:00"
        },
        "performer": [
          {
            "reference": "Practitioner/Practitioner-2526",
            "display": "James Woodward Wilkins MD"
          }
        ],
        "valueQuantity": {
          "value": 112.23776563755189,
          "unit": "mmHg"
        }
      },
      "request": {
        "method": "PUT",
        "url": "http://localhost:8080/cqf-ruler/baseDstu3/Observation/Observation-487159"
      }
    },
    {
      "fullUrl": "http://localhost:8080/cqf-ruler/baseDstu3/Condition/Condition-487160",
      "resource": {
        "resourceType": "Condition",
        "id": "Condition-487160",
        "clinicalStatus": "active",
        "verificationStatus": "confirmed",
        "code": {
          "coding": [
            {
              "system": "http://snomed.info/sct",
              "code": "59621000",
              "display": "Essential hypertension"
            }
          ]
        },
        "subject": {
          "reference": "Patient/Patient-1130",
          "display": "Trudy Mae Campbell"
        },
        "context": {
          "reference": "Encounter/Encounter-2224",
          "display": "Wellness Visit"
        },
        "onsetDateTime": "2010-11-26T00:00:00-05:00",
        "assertedDate": "2010-11-26T00:00:00-05:00",
        "asserter": {
          "reference": "Practitioner/Practitioner-2526",
          "display": "James Woodward Wilkins MD"
        }
      },
      "request": {
        "method": "PUT",
        "url": "http://localhost:8080/cqf-ruler/baseDstu3/Condition/Condition-487160"
      }
    },
    {
      "fullUrl": "http://localhost:8080/cqf-ruler/baseDstu3/Observation/Observation-487161",
      "resource": {
        "resourceType": "Observation",
        "id": "Observation-487161",
        "status": "final",
        "code": {
          "coding": [
            {
              "system": "http://loinc.org",
              "code": "8302-2",
              "display": "Body Height"
            }
          ]
        },
        "subject": {
          "reference": "Patient/Patient-1130",
          "display": "Trudy Mae Campbell"
        },
        "context": {
          "reference": "Encounter/Encounter-2224",
          "display": "Wellness Visit"
        },
        "effectivePeriod": {
          "start": "2010-11-26T00:00:00-05:00",
          "end": "2010-11-26T00:00:00-05:00"
        },
        "performer": [
          {
            "reference": "Practitioner/Practitioner-2526",
            "display": "James Woodward Wilkins MD"
          }
        ],
        "valueQuantity": {
          "value": 49.3,
          "unit": "cm"
        }
      },
      "request": {
        "method": "PUT",
        "url": "http://localhost:8080/cqf-ruler/baseDstu3/Observation/Observation-487161"
      }
    },
    {
      "fullUrl": "http://localhost:8080/cqf-ruler/baseDstu3/Observation/Observation-487162",
      "resource": {
        "resourceType": "Observation",
        "id": "Observation-487162",
        "status": "final",
        "code": {
          "coding": [
            {
              "system": "http://loinc.org",
              "code": "29463-7",
              "display": "Body Weight"
            }
          ]
        },
        "subject": {
          "reference": "Patient/Patient-1130",
          "display": "Trudy Mae Campbell"
        },
        "context": {
          "reference": "Encounter/Encounter-2224",
          "display": "Wellness Visit"
        },
        "effectivePeriod": {
          "start": "2010-11-26T00:00:00-05:00",
          "end": "2010-11-26T00:00:00-05:00"
        },
        "performer": [
          {
            "reference": "Practitioner/Practitioner-2526",
            "display": "James Woodward Wilkins MD"
          }
        ],
        "valueQuantity": {
          "value": 3.4,
          "unit": "kg"
        }
      },
      "request": {
        "method": "PUT",
        "url": "http://localhost:8080/cqf-ruler/baseDstu3/Observation/Observation-487162"
      }
    },
    {
      "fullUrl": "http://localhost:8080/cqf-ruler/baseDstu3/Observation/Observation-487165",
      "resource": {
        "resourceType": "Observation",
        "id": "Observation-487165",
        "status": "final",
        "category": [
          {
            "coding": [
              {
                "system": "http://hl7.org/fhir/observation-category",
                "code": "vital-signs",
                "display": "vital-signs"
              }
            ]
          }
        ],
        "code": {
          "coding": [
            {
              "system": "http://loinc.org",
              "code": "55284-4",
              "display": "Blood Pressure"
            }
          ]
        },
        "subject": {
          "reference": "Patient/Patient-1130",
          "display": "Trudy Mae Campbell"
        },
        "context": {
          "reference": "Encounter/Encounter-2224",
          "display": "Wellness Visit"
        },
        "effectivePeriod": {
          "start": "2010-11-26T00:00:00-05:00",
          "end": "2010-11-26T00:00:00-05:00"
        },
        "valueQuantity": {
          "value": 112.23776563755189,
          "unit": "mmHg"
        },
        "component": [
          {
            "code": {
              "coding": [
                {
                  "system": "http://loinc.org",
                  "code": "8480-6",
                  "display": "Systolic Blood Pressure"
                }
              ]
            }
          },
          {
            "code": {
              "coding": [
                {
                  "system": "http://loinc.org",
                  "code": "8462-4",
                  "display": "Diastolic Blood Pressure"
                }
              ]
            }
          }
        ]
      },
      "request": {
        "method": "PUT",
        "url": "http://localhost:8080/cqf-ruler/baseDstu3/Observation/Observation-487165"
      }
    },
    {
      "fullUrl": "http://localhost:8080/cqf-ruler/baseDstu3/Observation/Observation-487167",
      "resource": {
        "resourceType": "Observation",
        "id": "Observation-487167",
        "status": "final",
        "code": {
          "coding": [
            {
              "system": "http://loinc.org",
              "code": "8302-2",
              "display": "Height"
            }
          ]
        },
        "subject": {
          "reference": "Patient/Patient-1130",
          "display": "Trudy Mae Campbell"
        },
        "context": {
          "reference": "Encounter/Encounter-2224",
          "display": "Wellness Visit"
        },
        "effectiveDateTime": "2010-11-26T00:00:00-05:00",
        "performer": [
          {
            "reference": "Practitioner/Practitioner-2526",
            "display": "James Woodward Wilkins MD"
          }
        ],
        "valueQuantity": {
          "value": 49.3,
          "unit": "cm"
        }
      },
      "request": {
        "method": "PUT",
        "url": "http://localhost:8080/cqf-ruler/baseDstu3/Observation/Observation-487167"
      }
    },
    {
      "fullUrl": "http://localhost:8080/cqf-ruler/baseDstu3/Observation/Observation-487168",
      "resource": {
        "resourceType": "Observation",
        "id": "Observation-487168",
        "status": "final",
        "code": {
          "coding": [
            {
              "system": "http://loinc.org",
              "code": "29463-7",
              "display": "Weight"
            }
          ]
        },
        "subject": {
          "reference": "Patient/Patient-1130",
          "display": "Trudy Mae Campbell"
        },
        "context": {
          "reference": "Encounter/Encounter-2224",
          "display": "Wellness Visit"
        },
        "effectiveDateTime": "2010-11-26T00:00:00-05:00",
        "performer": [
          {
            "reference": "Practitioner/Practitioner-2526",
            "display": "James Woodward Wilkins MD"
          }
        ],
        "valueQuantity": {
          "value": 3.4,
          "unit": "kg"
        }
      },
      "request": {
        "method": "PUT",
        "url": "http://localhost:8080/cqf-ruler/baseDstu3/Observation/Observation-487168"
      }
    },
    {
      "fullUrl": "http://localhost:8080/cqf-ruler/baseDstu3/Observation/Observation-487169",
      "resource": {
        "resourceType": "Observation",
        "id": "Observation-487169",
        "status": "final",
        "code": {
          "coding": [
            {
              "system": "http://loinc.org",
              "code": "39156-5",
              "display": "BMI"
            }
          ]
        },
        "subject": {
          "reference": "Patient/Patient-1130",
          "display": "Trudy Mae Campbell"
        },
        "context": {
          "reference": "Encounter/Encounter-2224",
          "display": "Wellness Visit"
        },
        "effectiveDateTime": "2010-11-26T00:00:00-05:00",
        "performer": [
          {
            "reference": "Practitioner/Practitioner-2526",
            "display": "James Woodward Wilkins MD"
          }
        ],
        "valueQuantity": {
          "value": 13.988948730502903,
          "unit": "kg/m2"
        }
      },
      "request": {
        "method": "PUT",
        "url": "http://localhost:8080/cqf-ruler/baseDstu3/Observation/Observation-487169"
      }
    },
    {
      "fullUrl": "http://localhost:8080/cqf-ruler/baseDstu3/Observation/Observation-487170",
      "resource": {
        "resourceType": "Observation",
        "id": "Observation-487170",
        "status": "final",
        "code": {
          "coding": [
            {
              "system": "http://loinc.org",
              "code": "8310-5",
              "display": "Temperature"
            }
          ]
        },
        "subject": {
          "reference": "Patient/Patient-1130",
          "display": "Trudy Mae Campbell"
        },
        "context": {
          "reference": "Encounter/Encounter-2224",
          "display": "Wellness Visit"
        },
        "effectiveDateTime": "2010-11-26T00:00:00-05:00",
        "performer": [
          {
            "reference": "Practitioner/Practitioner-2526",
            "display": "James Woodward Wilkins MD"
          }
        ],
        "valueQuantity": {
          "value": 37.0,
          "unit": "C"
        }
      },
      "request": {
        "method": "PUT",
        "url": "http://localhost:8080/cqf-ruler/baseDstu3/Observation/Observation-487170"
      }
    },
    {
      "fullUrl": "http://localhost:8080/cqf-ruler/baseDstu3/Observation/Observation-487171",
      "resource": {
        "resourceType": "Observation",
        "id": "Observation-487171",
        "status": "final",
        "code": {
          "coding": [
            {
              "system": "http://loinc.org",
              "code": "8459-0",
              "display": "Systolic Blood Pressure"
            }
          ]
        },
        "subject": {
          "reference": "Patient/Patient-1130",
          "display": "Trudy Mae Campbell"
        },
        "context": {
          "reference": "Encounter/Encounter-2224",
          "display": "Wellness Visit"
        },
        "effectiveDateTime": "2010-11-26T00:00:00-05:00",
        "performer": [
          {
            "reference": "Practitioner/Practitioner-2526",
            "display": "James Woodward Wilkins MD"
          }
        ],
        "valueQuantity": {
          "value": 167.80924316806954,
          "unit": "mmHg"
        }
      },
      "request": {
        "method": "PUT",
        "url": "http://localhost:8080/cqf-ruler/baseDstu3/Observation/Observation-487171"
      }
    },
    {
      "fullUrl": "http://localhost:8080/cqf-ruler/baseDstu3/Observation/Observation-487172",
      "resource": {
        "resourceType": "Observation",
        "id": "Observation-487172",
        "status": "final",
        "code": {
          "coding": [
            {
              "system": "http://loinc.org",
              "code": "8453-3",
              "display": "Diastolic Blood Pressure"
            }
          ]
        },
        "subject": {
          "reference": "Patient/Patient-1130",
          "display": "Trudy Mae Campbell"
        },
        "context": {
          "reference": "Encounter/Encounter-2224",
          "display": "Wellness Visit"
        },
        "effectiveDateTime": "2010-11-26T00:00:00-05:00",
        "performer": [
          {
            "reference": "Practitioner/Practitioner-2526",
            "display": "James Woodward Wilkins MD"
          }
        ],
        "valueQuantity": {
          "value": 112.23776563755189,
          "unit": "mmHg"
        }
      },
      "request": {
        "method": "PUT",
        "url": "http://localhost:8080/cqf-ruler/baseDstu3/Observation/Observation-487172"
      }
    },
    {
      "fullUrl": "http://localhost:8080/cqf-ruler/baseDstu3/DiagnosticReport/DiagnosticReport-487166",
      "resource": {
        "resourceType": "DiagnosticReport",
        "id": "DiagnosticReport-487166",
        "status": "final",
        "code": {
          "coding": [
            {
              "system": "http://loinc.org",
              "code": "8716-3",
              "display": "Vital Signs Panel"
            }
          ]
        },
        "subject": {
          "reference": "Patient/Patient-1130",
          "display": "Trudy Mae Campbell"
        },
        "context": {
          "reference": "Encounter/Encounter-2224",
          "display": "Wellness Visit"
        },
        "effectivePeriod": {
          "start": "2010-11-26T00:00:00-05:00",
          "end": "2010-11-26T00:00:00-05:00"
        },
        "issued": "2010-11-26T00:00:00.000-05:00",
        "result": [
          {
            "reference": "Observation/Observation-487167",
            "display": "Height"
          },
          {
            "reference": "Observation/Observation-487168",
            "display": "Weight"
          },
          {
            "reference": "Observation/Observation-487169",
            "display": "BMI"
          },
          {
            "reference": "Observation/Observation-487170",
            "display": "Temperature"
          },
          {
            "reference": "Observation/Observation-487171",
            "display": "Systolic Blood Pressure"
          },
          {
            "reference": "Observation/Observation-487172",
            "display": "Diastolic Blood Pressure"
          }
        ]
      },
      "request": {
        "method": "PUT",
        "url": "http://localhost:8080/cqf-ruler/baseDstu3/DiagnosticReport/DiagnosticReport-487166"
      }
    }
  ]
}