{
  "resourceType": "Bundle",
  "id": "Jamie-Cain-Melendez-6522-Encounter-1392",
  "type": "transaction",
  "entry": [
    {
      "fullUrl": "http://localhost:8080/cqf-ruler/baseDstu3/Encounter/Encounter-1392",
      "resource": {
        "resourceType": "Encounter",
        "id": "Encounter-1392",
        "meta": {
          "profile": [
            "http://hl7.org/fhir/us/hedis/StructureDefinition/hedis-encounter"
          ]
        },
        "status": "finished",
        "class": {
          "system": "http://hl7.org/fhir/encounter-class",
          "code": "ambulatory",
          "display": "Ambulatory"
        },
        "type": [
          {
            "coding": [
              {
                "system": "http://snomed.info/sct",
                "code": "185345009",
                "display": "Encounter for symptom"
              }
            ]
          }
        ],
        "subject": {
          "reference": "Patient/Patient-6522",
          "display": "Jamie Cain Melendez"
        },
        "participant": [
          {
            "period": {
              "start": "2002-02-26T20:00:00-05:00",
              "end": "2002-02-26T20:00:00-05:00"
            },
            "individual": {
              "reference": "Practitioner/Practitioner-2532",
              "display": "Chad Espinoza Potter MD"
            }
          }
        ],
        "period": {
          "start": "2002-02-26T20:00:00-05:00",
          "end": "2002-02-26T20:00:00-05:00"
        },
        "reason": [
          {
            "coding": [
              {
                "system": "http://snomed.info/sct",
                "code": "44054006",
                "display": "Type 2 diabetes mellitus"
              }
            ]
          }
        ],
        "location": [
          {
            "location": {
              "reference": "Location/Location-1002",
              "display": "Gift of Mercy Hospital"
            }
          }
        ],
        "serviceProvider": {
          "reference": "Organization/Organization-1002",
          "display": "Gift of Mercy Hospital"
        }
      },
      "request": {
        "method": "PUT",
        "url": "http://localhost:8080/cqf-ruler/baseDstu3/Encounter/Encounter-1392"
      }
    },
    {
      "fullUrl": "http://localhost:8080/cqf-ruler/baseDstu3/MedicationRequest/MedicationRequest-285768",
      "resource": {
        "resourceType": "MedicationRequest",
        "id": "MedicationRequest-285768",
        "meta": {
          "profile": [
            "http://hl7.org/fhir/us/hedis/StructureDefinition/hedis-medicationrequest"
          ]
        },
        "status": "active",
        "intent": "order",
        "medicationCodeableConcept": {
          "coding": [
            {
              "system": "http://www.nlm.nih.gov/research/umls/rxnorm",
              "code": "106892",
              "display": "insulin human, isophane 70 UNT/ML / Regular Insulin, Human 30 UNT/ML Injectable Suspension [Humulin]"
            }
          ]
        },
        "subject": {
          "reference": "Patient/Patient-6522",
          "display": "Jamie Cain Melendez"
        },
        "context": {
          "reference": "Encounter/Encounter-1392",
          "display": "Followup_Visit"
        },
        "authoredOn": "2002-02-26T20:00:00-05:00",
        "reasonCode": [
          {
            "coding": [
              {
                "system": "http://snomed.info/sct",
                "code": "44054006",
                "display": "Type 2 diabetes mellitus"
              }
            ]
          }
        ],
        "dosageInstruction": [
          {
            "timing": {
              "repeat": {
                "frequency": 1
              }
            },
            "doseQuantity": {
              "value": 1
            }
          }
        ],
        "dispenseRequest": {
          "validityPeriod": {
            "start": "2002-02-26T20:00:00-05:00",
            "end": "2002-02-26T20:00:00-05:00"
          }
        }
      },
      "request": {
        "method": "PUT",
        "url": "http://localhost:8080/cqf-ruler/baseDstu3/MedicationRequest/MedicationRequest-285768"
      }
    },
    {
      "fullUrl": "http://localhost:8080/cqf-ruler/baseDstu3/MedicationRequest/MedicationRequest-285769",
      "resource": {
        "resourceType": "MedicationRequest",
        "id": "MedicationRequest-285769",
        "meta": {
          "profile": [
            "http://hl7.org/fhir/us/hedis/StructureDefinition/hedis-medicationrequest"
          ]
        },
        "status": "active",
        "intent": "order",
        "medicationCodeableConcept": {
          "coding": [
            {
              "system": "http://www.nlm.nih.gov/research/umls/rxnorm",
              "code": "897122",
              "display": "3 ML liraglutide 6 MG/ML Pen Injector"
            }
          ]
        },
        "subject": {
          "reference": "Patient/Patient-6522",
          "display": "Jamie Cain Melendez"
        },
        "context": {
          "reference": "Encounter/Encounter-1392",
          "display": "Followup_Visit"
        },
        "authoredOn": "2002-02-26T20:00:00-05:00",
        "reasonCode": [
          {
            "coding": [
              {
                "system": "http://snomed.info/sct",
                "code": "44054006",
                "display": "Type 2 diabetes mellitus"
              }
            ]
          }
        ],
        "dispenseRequest": {
          "validityPeriod": {
            "start": "2002-02-26T20:00:00-05:00",
            "end": "2002-02-26T20:00:00-05:00"
          }
        }
      },
      "request": {
        "method": "PUT",
        "url": "http://localhost:8080/cqf-ruler/baseDstu3/MedicationRequest/MedicationRequest-285769"
      }
    },
    {
      "fullUrl": "http://localhost:8080/cqf-ruler/baseDstu3/Observation/Observation-285772",
      "resource": {
        "resourceType": "Observation",
        "id": "Observation-285772",
        "status": "final",
        "code": {
          "coding": [
            {
              "system": "http://loinc.org",
              "code": "8302-2",
              "display": "Height"
            }
          ]
        },
        "subject": {
          "reference": "Patient/Patient-6522",
          "display": "Jamie Cain Melendez"
        },
        "context": {
          "reference": "Encounter/Encounter-1392",
          "display": "Followup_Visit"
        },
        "effectiveDateTime": "2002-02-26T20:00:00-05:00",
        "performer": [
          {
            "reference": "Practitioner/Practitioner-2532",
            "display": "Chad Espinoza Potter MD"
          }
        ],
        "valueQuantity": {
          "value": 155.0,
          "unit": "cm"
        }
      },
      "request": {
        "method": "PUT",
        "url": "http://localhost:8080/cqf-ruler/baseDstu3/Observation/Observation-285772"
      }
    },
    {
      "fullUrl": "http://localhost:8080/cqf-ruler/baseDstu3/Observation/Observation-285773",
      "resource": {
        "resourceType": "Observation",
        "id": "Observation-285773",
        "status": "final",
        "code": {
          "coding": [
            {
              "system": "http://loinc.org",
              "code": "29463-7",
              "display": "Weight"
            }
          ]
        },
        "subject": {
          "reference": "Patient/Patient-6522",
          "display": "Jamie Cain Melendez"
        },
        "context": {
          "reference": "Encounter/Encounter-1392",
          "display": "Followup_Visit"
        },
        "effectiveDateTime": "2002-02-26T20:00:00-05:00",
        "performer": [
          {
            "reference": "Practitioner/Practitioner-2532",
            "display": "Chad Espinoza Potter MD"
          }
        ],
        "valueQuantity": {
          "value": 67.7765939912187,
          "unit": "kg"
        }
      },
      "request": {
        "method": "PUT",
        "url": "http://localhost:8080/cqf-ruler/baseDstu3/Observation/Observation-285773"
      }
    },
    {
      "fullUrl": "http://localhost:8080/cqf-ruler/baseDstu3/Observation/Observation-285774",
      "resource": {
        "resourceType": "Observation",
        "id": "Observation-285774",
        "status": "final",
        "code": {
          "coding": [
            {
              "system": "http://loinc.org",
              "code": "39156-5",
              "display": "BMI"
            }
          ]
        },
        "subject": {
          "reference": "Patient/Patient-6522",
          "display": "Jamie Cain Melendez"
        },
        "context": {
          "reference": "Encounter/Encounter-1392",
          "display": "Followup_Visit"
        },
        "effectiveDateTime": "2002-02-26T20:00:00-05:00",
        "performer": [
          {
            "reference": "Practitioner/Practitioner-2532",
            "display": "Chad Espinoza Potter MD"
          }
        ],
        "valueQuantity": {
          "value": 28.21086118260924,
          "unit": "kg/m2"
        }
      },
      "request": {
        "method": "PUT",
        "url": "http://localhost:8080/cqf-ruler/baseDstu3/Observation/Observation-285774"
      }
    },
    {
      "fullUrl": "http://localhost:8080/cqf-ruler/baseDstu3/Observation/Observation-285775",
      "resource": {
        "resourceType": "Observation",
        "id": "Observation-285775",
        "status": "final",
        "code": {
          "coding": [
            {
              "system": "http://loinc.org",
              "code": "8310-5",
              "display": "Temperature"
            }
          ]
        },
        "subject": {
          "reference": "Patient/Patient-6522",
          "display": "Jamie Cain Melendez"
        },
        "context": {
          "reference": "Encounter/Encounter-1392",
          "display": "Followup_Visit"
        },
        "effectiveDateTime": "2002-02-26T20:00:00-05:00",
        "performer": [
          {
            "reference": "Practitioner/Practitioner-2532",
            "display": "Chad Espinoza Potter MD"
          }
        ],
        "valueQuantity": {
          "value": 37.0,
          "unit": "C"
        }
      },
      "request": {
        "method": "PUT",
        "url": "http://localhost:8080/cqf-ruler/baseDstu3/Observation/Observation-285775"
      }
    },
    {
      "fullUrl": "http://localhost:8080/cqf-ruler/baseDstu3/Observation/Observation-285776",
      "resource": {
        "resourceType": "Observation",
        "id": "Observation-285776",
        "status": "final",
        "code": {
          "coding": [
            {
              "system": "http://loinc.org",
              "code": "8459-0",
              "display": "Systolic Blood Pressure"
            }
          ]
        },
        "subject": {
          "reference": "Patient/Patient-6522",
          "display": "Jamie Cain Melendez"
        },
        "context": {
          "reference": "Encounter/Encounter-1392",
          "display": "Followup_Visit"
        },
        "effectiveDateTime": "2002-02-26T20:00:00-05:00",
        "performer": [
          {
            "reference": "Practitioner/Practitioner-2532",
            "display": "Chad Espinoza Potter MD"
          }
        ],
        "valueQuantity": {
          "value": 103.59353506044883,
          "unit": "mmHg"
        }
      },
      "request": {
        "method": "PUT",
        "url": "http://localhost:8080/cqf-ruler/baseDstu3/Observation/Observation-285776"
      }
    },
    {
      "fullUrl": "http://localhost:8080/cqf-ruler/baseDstu3/Observation/Observation-285777",
      "resource": {
        "resourceType": "Observation",
        "id": "Observation-285777",
        "status": "final",
        "code": {
          "coding": [
            {
              "system": "http://loinc.org",
              "code": "8453-3",
              "display": "Diastolic Blood Pressure"
            }
          ]
        },
        "subject": {
          "reference": "Patient/Patient-6522",
          "display": "Jamie Cain Melendez"
        },
        "context": {
          "reference": "Encounter/Encounter-1392",
          "display": "Followup_Visit"
        },
        "effectiveDateTime": "2002-02-26T20:00:00-05:00",
        "performer": [
          {
            "reference": "Practitioner/Practitioner-2532",
            "display": "Chad Espinoza Potter MD"
          }
        ],
        "valueQuantity": {
          "value": 73.54202254379238,
          "unit": "mmHg"
        }
      },
      "request": {
        "method": "PUT",
        "url": "http://localhost:8080/cqf-ruler/baseDstu3/Observation/Observation-285777"
      }
    },
    {
      "fullUrl": "http://localhost:8080/cqf-ruler/baseDstu3/DiagnosticReport/DiagnosticReport-285771",
      "resource": {
        "resourceType": "DiagnosticReport",
        "id": "DiagnosticReport-285771",
        "meta": {
          "profile": [
            "http://hl7.org/fhir/us/hedis/StructureDefinition/hedis-diagnosticreport"
          ]
        },
        "status": "final",
        "category": {
          "coding": [
            {
              "system": "http://hl7.org/fhir/ValueSet/diagnostic-service-sections",
              "code": "LAB",
              "display": "Laboratory"
            }
          ]
        },
        "code": {
          "coding": [
            {
              "system": "http://loinc.org",
              "code": "8716-3",
              "display": "Vital Signs Panel"
            }
          ]
        },
        "subject": {
          "reference": "Patient/Patient-6522",
          "display": "Jamie Cain Melendez"
        },
        "context": {
          "reference": "Encounter/Encounter-1392",
          "display": "Followup_Visit"
        },
        "effectivePeriod": {
          "start": "2002-02-26T20:00:00-05:00",
          "end": "2002-02-26T20:00:00-05:00"
        },
        "issued": "2002-02-26T20:00:00.000-05:00",
        "result": [
          {
            "reference": "Observation/Observation-285772",
            "display": "Height"
          },
          {
            "reference": "Observation/Observation-285773",
            "display": "Weight"
          },
          {
            "reference": "Observation/Observation-285774",
            "display": "BMI"
          },
          {
            "reference": "Observation/Observation-285775",
            "display": "Temperature"
          },
          {
            "reference": "Observation/Observation-285776",
            "display": "Systolic Blood Pressure"
          },
          {
            "reference": "Observation/Observation-285777",
            "display": "Diastolic Blood Pressure"
          }
        ]
      },
      "request": {
        "method": "PUT",
        "url": "http://localhost:8080/cqf-ruler/baseDstu3/DiagnosticReport/DiagnosticReport-285771"
      }
    }
  ]
}