{
  "resourceType": "Bundle",
  "id": "Jamie-Cain-Melendez-6522-Encounter-1690",
  "type": "transaction",
  "entry": [
    {
      "fullUrl": "http://localhost:8080/cqf-ruler/baseDstu3/Encounter/Encounter-1690",
      "resource": {
        "resourceType": "Encounter",
        "id": "Encounter-1690",
        "meta": {
          "profile": [
            "http://hl7.org/fhir/us/hedis/StructureDefinition/hedis-encounter"
          ]
        },
        "status": "finished",
        "class": {
          "system": "http://hl7.org/fhir/encounter-class",
          "code": "outpatient",
          "display": "Outpatient"
        },
        "type": [
          {
            "coding": [
              {
                "system": "http://snomed.info/sct",
                "code": "185349003",
                "display": "Wellness Visit"
              }
            ]
          }
        ],
        "subject": {
          "reference": "Patient/Patient-6522",
          "display": "Jamie Cain Melendez"
        },
        "participant": [
          {
            "period": {
              "start": "2006-02-24T00:00:00-05:00",
              "end": "2006-02-24T00:00:00-05:00"
            },
            "individual": {
              "reference": "Practitioner/Practitioner-2519",
              "display": "Stanley Jason Garrett MD"
            }
          }
        ],
        "period": {
          "start": "2006-02-24T00:00:00-05:00",
          "end": "2006-02-24T00:00:00-05:00"
        },
        "location": [
          {
            "location": {
              "reference": "Location/Location-1104",
              "display": "Bay Area Family Practice"
            }
          }
        ],
        "serviceProvider": {
          "reference": "Organization/Organization-1104",
          "display": "Bay Area Family Practice"
        }
      },
      "request": {
        "method": "PUT",
        "url": "http://localhost:8080/cqf-ruler/baseDstu3/Encounter/Encounter-1690"
      }
    },
    {
      "fullUrl": "http://localhost:8080/cqf-ruler/baseDstu3/Immunization/Immunization-353639",
      "resource": {
        "resourceType": "Immunization",
        "id": "Immunization-353639",
        "status": "completed",
        "notGiven": false,
        "vaccineCode": {
          "coding": [
            {
              "system": "http://hl7.org/fhir/sid/cvx",
              "code": "140",
              "display": "Influenza, seasonal, injectable, preservative free"
            }
          ]
        },
        "patient": {
          "reference": "Patient/Patient-6522",
          "display": "Jamie Cain Melendez"
        },
        "date": "2006-02-24T00:00:00-05:00",
        "primarySource": true,
        "location": {
          "reference": "Location/Location-1104",
          "display": "Bay Area Family Practice"
        },
        "practitioner": [
          {
            "actor": {
              "reference": "Practitioner/Practitioner-2519",
              "display": "Stanley Jason Garrett MD"
            }
          }
        ]
      },
      "request": {
        "method": "PUT",
        "url": "http://localhost:8080/cqf-ruler/baseDstu3/Immunization/Immunization-353639"
      }
    },
    {
      "fullUrl": "http://localhost:8080/cqf-ruler/baseDstu3/Procedure/Procedure-376483",
      "resource": {
        "resourceType": "Procedure",
        "id": "Procedure-376483",
        "meta": {
          "profile": [
            "http://hl7.org/fhir/us/hedis/StructureDefinition/hedis-procedure"
          ]
        },
        "status": "completed",
        "code": {
          "coding": [
            {
              "system": "http://snomed.info/sct",
              "code": "713107002",
              "display": "Screening for alcohol abuse (procedure)"
            }
          ]
        },
        "subject": {
          "reference": "Patient/Patient-6522",
          "display": "Jamie Cain Melendez"
        },
        "context": {
          "reference": "Encounter/Encounter-1690",
          "display": "Wellness Visit"
        },
        "performedPeriod": {
          "start": "2006-02-24T00:00:00-05:00",
          "end": "2006-02-24T00:00:00-05:00"
        },
        "performer": [
          {
            "actor": {
              "reference": "Practitioner/Practitioner-2519",
              "display": "Stanley Jason Garrett MD"
            }
          }
        ],
        "location": {
          "reference": "Location/Location-1104",
          "display": "Bay Area Family Practice"
        }
      },
      "request": {
        "method": "PUT",
        "url": "http://localhost:8080/cqf-ruler/baseDstu3/Procedure/Procedure-376483"
      }
    },
    {
      "fullUrl": "http://localhost:8080/cqf-ruler/baseDstu3/Observation/Observation-376484",
      "resource": {
        "resourceType": "Observation",
        "id": "Observation-376484",
        "meta": {
          "profile": [
            "http://hl7.org/fhir/us/hedis/StructureDefinition/hedis-observation"
          ]
        },
        "status": "final",
        "code": {
          "coding": [
            {
              "system": "http://snomed.info/sct",
              "code": "704198001",
              "display": "Denies alcohol use (finding)"
            }
          ]
        },
        "subject": {
          "reference": "Patient/Patient-6522",
          "display": "Jamie Cain Melendez"
        },
        "context": {
          "reference": "Encounter/Encounter-1690",
          "display": "Wellness Visit"
        },
        "effectiveDateTime": "2006-02-24T00:00:00-05:00",
        "performer": [
          {
            "reference": "Practitioner/Practitioner-2519",
            "display": "Stanley Jason Garrett MD"
          }
        ],
        "valueQuantity": {
          "value": 0.0,
          "unit": "drinks/day"
        }
      },
      "request": {
        "method": "PUT",
        "url": "http://localhost:8080/cqf-ruler/baseDstu3/Observation/Observation-376484"
      }
    },
    {
      "fullUrl": "http://localhost:8080/cqf-ruler/baseDstu3/Observation/Observation-376485",
      "resource": {
        "resourceType": "Observation",
        "id": "Observation-376485",
        "meta": {
          "profile": [
            "http://hl7.org/fhir/us/hedis/StructureDefinition/hedis-observation"
          ]
        },
        "status": "final",
        "code": {
          "coding": [
            {
              "system": "http://loinc.org",
              "code": "8480-6",
              "display": "Systolic blood pressure"
            }
          ]
        },
        "subject": {
          "reference": "Patient/Patient-6522",
          "display": "Jamie Cain Melendez"
        },
        "context": {
          "reference": "Encounter/Encounter-1690",
          "display": "Wellness Visit"
        },
        "effectiveDateTime": "2006-02-24T00:00:00-05:00",
        "performer": [
          {
            "reference": "Practitioner/Practitioner-2519",
            "display": "Stanley Jason Garrett MD"
          }
        ],
        "valueQuantity": {
          "value": 157.86885787773133,
          "unit": "mmHg"
        }
      },
      "request": {
        "method": "PUT",
        "url": "http://localhost:8080/cqf-ruler/baseDstu3/Observation/Observation-376485"
      }
    },
    {
      "fullUrl": "http://localhost:8080/cqf-ruler/baseDstu3/Observation/Observation-376486",
      "resource": {
        "resourceType": "Observation",
        "id": "Observation-376486",
        "meta": {
          "profile": [
            "http://hl7.org/fhir/us/hedis/StructureDefinition/hedis-observation"
          ]
        },
        "status": "final",
        "code": {
          "coding": [
            {
              "system": "http://loinc.org",
              "code": "8462-4",
              "display": "Diastolic blood pressure"
            }
          ]
        },
        "subject": {
          "reference": "Patient/Patient-6522",
          "display": "Jamie Cain Melendez"
        },
        "context": {
          "reference": "Encounter/Encounter-1690",
          "display": "Wellness Visit"
        },
        "effectiveDateTime": "2006-02-24T00:00:00-05:00",
        "performer": [
          {
            "reference": "Practitioner/Practitioner-2519",
            "display": "Stanley Jason Garrett MD"
          }
        ],
        "valueQuantity": {
          "value": 97.58552292651525,
          "unit": "mmHg"
        }
      },
      "request": {
        "method": "PUT",
        "url": "http://localhost:8080/cqf-ruler/baseDstu3/Observation/Observation-376486"
      }
    },
    {
      "fullUrl": "http://localhost:8080/cqf-ruler/baseDstu3/Condition/Condition-376487",
      "resource": {
        "resourceType": "Condition",
        "id": "Condition-376487",
        "meta": {
          "profile": [
            "http://hl7.org/fhir/us/hedis/StructureDefinition/hedis-condition"
          ]
        },
        "clinicalStatus": "active",
        "verificationStatus": "confirmed",
        "code": {
          "coding": [
            {
              "system": "TBD",
              "code": "TBD",
              "display": "TBD"
            }
          ]
        },
        "subject": {
          "reference": "Patient/Patient-6522",
          "display": "Jamie Cain Melendez"
        },
        "context": {
          "reference": "Encounter/Encounter-1690",
          "display": "Wellness Visit"
        },
        "onsetDateTime": "2006-02-24T00:00:00-05:00",
        "assertedDate": "2006-02-24T00:00:00-05:00",
        "asserter": {
          "reference": "Practitioner/Practitioner-2519",
          "display": "Stanley Jason Garrett MD"
        }
      },
      "request": {
        "method": "PUT",
        "url": "http://localhost:8080/cqf-ruler/baseDstu3/Condition/Condition-376487"
      }
    },
    {
      "fullUrl": "http://localhost:8080/cqf-ruler/baseDstu3/Procedure/Procedure-376488",
      "resource": {
        "resourceType": "Procedure",
        "id": "Procedure-376488",
        "meta": {
          "profile": [
            "http://hl7.org/fhir/us/hedis/StructureDefinition/hedis-procedure"
          ]
        },
        "status": "completed",
        "code": {
          "coding": [
            {
              "system": "http://www.ama-assn.org/go/cpt",
              "code": "82270",
              "display": "Blood, occult, by peroxidase activity (eg, guaiac), qualitative; feces, consecutive collected specimens with single determination, for colorectal neoplasm screening (ie, patient was provided 3 cards or single triple card for consecutive collection)"
            }
          ]
        },
        "subject": {
          "reference": "Patient/Patient-6522",
          "display": "Jamie Cain Melendez"
        },
        "context": {
          "reference": "Encounter/Encounter-1690",
          "display": "Wellness Visit"
        },
        "performedPeriod": {
          "start": "2006-02-24T00:00:00-05:00",
          "end": "2006-02-24T00:00:00-05:00"
        },
        "performer": [
          {
            "actor": {
              "reference": "Practitioner/Practitioner-2519",
              "display": "Stanley Jason Garrett MD"
            }
          }
        ],
        "location": {
          "reference": "Location/Location-1104",
          "display": "Bay Area Family Practice"
        }
      },
      "request": {
        "method": "PUT",
        "url": "http://localhost:8080/cqf-ruler/baseDstu3/Procedure/Procedure-376488"
      }
    },
    {
      "fullUrl": "http://localhost:8080/cqf-ruler/baseDstu3/Observation/Observation-376489",
      "resource": {
        "resourceType": "Observation",
        "id": "Observation-376489",
        "meta": {
          "profile": [
            "http://hl7.org/fhir/us/hedis/StructureDefinition/hedis-observation"
          ]
        },
        "status": "final",
        "code": {
          "coding": [
            {
              "system": "http://www.ama-assn.org/go/cpt",
              "code": "82274",
              "display": "Blood, occult, by fecal hemoglobin determination by immunoassay, qualitative, feces, 1-3 simultaneous determinations"
            }
          ]
        },
        "subject": {
          "reference": "Patient/Patient-6522",
          "display": "Jamie Cain Melendez"
        },
        "context": {
          "reference": "Encounter/Encounter-1690",
          "display": "Wellness Visit"
        },
        "effectiveDateTime": "2006-02-24T00:00:00-05:00",
        "performer": [
          {
            "reference": "Practitioner/Practitioner-2519",
            "display": "Stanley Jason Garrett MD"
          }
        ],
        "valueString": "POSITIVE"
      },
      "request": {
        "method": "PUT",
        "url": "http://localhost:8080/cqf-ruler/baseDstu3/Observation/Observation-376489"
      }
    },
    {
      "fullUrl": "http://localhost:8080/cqf-ruler/baseDstu3/Observation/Observation-376492",
      "resource": {
        "resourceType": "Observation",
        "id": "Observation-376492",
        "status": "final",
        "code": {
          "coding": [
            {
              "system": "http://loinc.org",
              "code": "8302-2",
              "display": "Height"
            }
          ]
        },
        "subject": {
          "reference": "Patient/Patient-6522",
          "display": "Jamie Cain Melendez"
        },
        "context": {
          "reference": "Encounter/Encounter-1690",
          "display": "Wellness Visit"
        },
        "effectiveDateTime": "2006-02-24T00:00:00-05:00",
        "performer": [
          {
            "reference": "Practitioner/Practitioner-2519",
            "display": "Stanley Jason Garrett MD"
          }
        ],
        "valueQuantity": {
          "value": 155.0,
          "unit": "cm"
        }
      },
      "request": {
        "method": "PUT",
        "url": "http://localhost:8080/cqf-ruler/baseDstu3/Observation/Observation-376492"
      }
    },
    {
      "fullUrl": "http://localhost:8080/cqf-ruler/baseDstu3/Observation/Observation-376493",
      "resource": {
        "resourceType": "Observation",
        "id": "Observation-376493",
        "status": "final",
        "code": {
          "coding": [
            {
              "system": "http://loinc.org",
              "code": "29463-7",
              "display": "Weight"
            }
          ]
        },
        "subject": {
          "reference": "Patient/Patient-6522",
          "display": "Jamie Cain Melendez"
        },
        "context": {
          "reference": "Encounter/Encounter-1690",
          "display": "Wellness Visit"
        },
        "effectiveDateTime": "2006-02-24T00:00:00-05:00",
        "performer": [
          {
            "reference": "Practitioner/Practitioner-2519",
            "display": "Stanley Jason Garrett MD"
          }
        ],
        "valueQuantity": {
          "value": 68.48318139559193,
          "unit": "kg"
        }
      },
      "request": {
        "method": "PUT",
        "url": "http://localhost:8080/cqf-ruler/baseDstu3/Observation/Observation-376493"
      }
    },
    {
      "fullUrl": "http://localhost:8080/cqf-ruler/baseDstu3/Observation/Observation-376494",
      "resource": {
        "resourceType": "Observation",
        "id": "Observation-376494",
        "status": "final",
        "code": {
          "coding": [
            {
              "system": "http://loinc.org",
              "code": "39156-5",
              "display": "BMI"
            }
          ]
        },
        "subject": {
          "reference": "Patient/Patient-6522",
          "display": "Jamie Cain Melendez"
        },
        "context": {
          "reference": "Encounter/Encounter-1690",
          "display": "Wellness Visit"
        },
        "effectiveDateTime": "2006-02-24T00:00:00-05:00",
        "performer": [
          {
            "reference": "Practitioner/Practitioner-2519",
            "display": "Stanley Jason Garrett MD"
          }
        ],
        "valueQuantity": {
          "value": 28.50496624166157,
          "unit": "kg/m2"
        }
      },
      "request": {
        "method": "PUT",
        "url": "http://localhost:8080/cqf-ruler/baseDstu3/Observation/Observation-376494"
      }
    },
    {
      "fullUrl": "http://localhost:8080/cqf-ruler/baseDstu3/Observation/Observation-376495",
      "resource": {
        "resourceType": "Observation",
        "id": "Observation-376495",
        "status": "final",
        "code": {
          "coding": [
            {
              "system": "http://loinc.org",
              "code": "8310-5",
              "display": "Temperature"
            }
          ]
        },
        "subject": {
          "reference": "Patient/Patient-6522",
          "display": "Jamie Cain Melendez"
        },
        "context": {
          "reference": "Encounter/Encounter-1690",
          "display": "Wellness Visit"
        },
        "effectiveDateTime": "2006-02-24T00:00:00-05:00",
        "performer": [
          {
            "reference": "Practitioner/Practitioner-2519",
            "display": "Stanley Jason Garrett MD"
          }
        ],
        "valueQuantity": {
          "value": 37.0,
          "unit": "C"
        }
      },
      "request": {
        "method": "PUT",
        "url": "http://localhost:8080/cqf-ruler/baseDstu3/Observation/Observation-376495"
      }
    },
    {
      "fullUrl": "http://localhost:8080/cqf-ruler/baseDstu3/Observation/Observation-376496",
      "resource": {
        "resourceType": "Observation",
        "id": "Observation-376496",
        "status": "final",
        "code": {
          "coding": [
            {
              "system": "http://loinc.org",
              "code": "8459-0",
              "display": "Systolic Blood Pressure"
            }
          ]
        },
        "subject": {
          "reference": "Patient/Patient-6522",
          "display": "Jamie Cain Melendez"
        },
        "context": {
          "reference": "Encounter/Encounter-1690",
          "display": "Wellness Visit"
        },
        "effectiveDateTime": "2006-02-24T00:00:00-05:00",
        "performer": [
          {
            "reference": "Practitioner/Practitioner-2519",
            "display": "Stanley Jason Garrett MD"
          }
        ],
        "valueQuantity": {
          "value": 157.86885787773133,
          "unit": "mmHg"
        }
      },
      "request": {
        "method": "PUT",
        "url": "http://localhost:8080/cqf-ruler/baseDstu3/Observation/Observation-376496"
      }
    },
    {
      "fullUrl": "http://localhost:8080/cqf-ruler/baseDstu3/Observation/Observation-376497",
      "resource": {
        "resourceType": "Observation",
        "id": "Observation-376497",
        "status": "final",
        "code": {
          "coding": [
            {
              "system": "http://loinc.org",
              "code": "8453-3",
              "display": "Diastolic Blood Pressure"
            }
          ]
        },
        "subject": {
          "reference": "Patient/Patient-6522",
          "display": "Jamie Cain Melendez"
        },
        "context": {
          "reference": "Encounter/Encounter-1690",
          "display": "Wellness Visit"
        },
        "effectiveDateTime": "2006-02-24T00:00:00-05:00",
        "performer": [
          {
            "reference": "Practitioner/Practitioner-2519",
            "display": "Stanley Jason Garrett MD"
          }
        ],
        "valueQuantity": {
          "value": 97.58552292651525,
          "unit": "mmHg"
        }
      },
      "request": {
        "method": "PUT",
        "url": "http://localhost:8080/cqf-ruler/baseDstu3/Observation/Observation-376497"
      }
    },
    {
      "fullUrl": "http://localhost:8080/cqf-ruler/baseDstu3/DiagnosticReport/DiagnosticReport-376491",
      "resource": {
        "resourceType": "DiagnosticReport",
        "id": "DiagnosticReport-376491",
        "meta": {
          "profile": [
            "http://hl7.org/fhir/us/hedis/StructureDefinition/hedis-diagnosticreport"
          ]
        },
        "status": "final",
        "category": {
          "coding": [
            {
              "system": "http://hl7.org/fhir/ValueSet/diagnostic-service-sections",
              "code": "LAB",
              "display": "Laboratory"
            }
          ]
        },
        "code": {
          "coding": [
            {
              "system": "http://loinc.org",
              "code": "8716-3",
              "display": "Vital Signs Panel"
            }
          ]
        },
        "subject": {
          "reference": "Patient/Patient-6522",
          "display": "Jamie Cain Melendez"
        },
        "context": {
          "reference": "Encounter/Encounter-1690",
          "display": "Wellness Visit"
        },
        "effectivePeriod": {
          "start": "2006-02-24T00:00:00-05:00",
          "end": "2006-02-24T00:00:00-05:00"
        },
        "issued": "2006-02-24T00:00:00.000-05:00",
        "result": [
          {
            "reference": "Observation/Observation-376492",
            "display": "Height"
          },
          {
            "reference": "Observation/Observation-376493",
            "display": "Weight"
          },
          {
            "reference": "Observation/Observation-376494",
            "display": "BMI"
          },
          {
            "reference": "Observation/Observation-376495",
            "display": "Temperature"
          },
          {
            "reference": "Observation/Observation-376496",
            "display": "Systolic Blood Pressure"
          },
          {
            "reference": "Observation/Observation-376497",
            "display": "Diastolic Blood Pressure"
          }
        ]
      },
      "request": {
        "method": "PUT",
        "url": "http://localhost:8080/cqf-ruler/baseDstu3/DiagnosticReport/DiagnosticReport-376491"
      }
    },
    {
      "fullUrl": "http://localhost:8080/cqf-ruler/baseDstu3/Observation/Observation-376510",
      "resource": {
        "resourceType": "Observation",
        "id": "Observation-376510",
        "meta": {
          "profile": [
            "http://hl7.org/fhir/us/hedis/StructureDefinition/hedis-observation"
          ]
        },
        "status": "final",
        "code": {
          "coding": [
            {
              "system": "http://loinc.org",
              "code": "8302-2",
              "display": "Body Height"
            }
          ]
        },
        "subject": {
          "reference": "Patient/Patient-6522",
          "display": "Jamie Cain Melendez"
        },
        "context": {
          "reference": "Encounter/Encounter-1690",
          "display": "Wellness Visit"
        },
        "effectiveDateTime": "2006-02-24T00:00:00-05:00",
        "performer": [
          {
            "reference": "Practitioner/Practitioner-2519",
            "display": "Stanley Jason Garrett MD"
          }
        ],
        "valueQuantity": {
          "value": 155.0,
          "unit": "cm"
        }
      },
      "request": {
        "method": "PUT",
        "url": "http://localhost:8080/cqf-ruler/baseDstu3/Observation/Observation-376510"
      }
    },
    {
      "fullUrl": "http://localhost:8080/cqf-ruler/baseDstu3/Observation/Observation-376511",
      "resource": {
        "resourceType": "Observation",
        "id": "Observation-376511",
        "meta": {
          "profile": [
            "http://hl7.org/fhir/us/hedis/StructureDefinition/hedis-observation"
          ]
        },
        "status": "final",
        "code": {
          "coding": [
            {
              "system": "http://loinc.org",
              "code": "29463-7",
              "display": "Body Weight"
            }
          ]
        },
        "subject": {
          "reference": "Patient/Patient-6522",
          "display": "Jamie Cain Melendez"
        },
        "context": {
          "reference": "Encounter/Encounter-1690",
          "display": "Wellness Visit"
        },
        "effectiveDateTime": "2006-02-24T00:00:00-05:00",
        "performer": [
          {
            "reference": "Practitioner/Practitioner-2519",
            "display": "Stanley Jason Garrett MD"
          }
        ],
        "valueQuantity": {
          "value": 68.48318139559193,
          "unit": "kg"
        }
      },
      "request": {
        "method": "PUT",
        "url": "http://localhost:8080/cqf-ruler/baseDstu3/Observation/Observation-376511"
      }
    },
    {
      "fullUrl": "http://localhost:8080/cqf-ruler/baseDstu3/Observation/Observation-376512",
      "resource": {
        "resourceType": "Observation",
        "id": "Observation-376512",
        "meta": {
          "profile": [
            "http://hl7.org/fhir/us/hedis/StructureDefinition/hedis-observation"
          ]
        },
        "status": "final",
        "code": {
          "coding": [
            {
              "system": "http://loinc.org",
              "code": "39156-5",
              "display": "Body Mass Index"
            }
          ]
        },
        "subject": {
          "reference": "Patient/Patient-6522",
          "display": "Jamie Cain Melendez"
        },
        "context": {
          "reference": "Encounter/Encounter-1690",
          "display": "Wellness Visit"
        },
        "effectiveDateTime": "2006-02-24T00:00:00-05:00",
        "performer": [
          {
            "reference": "Practitioner/Practitioner-2519",
            "display": "Stanley Jason Garrett MD"
          }
        ],
        "valueQuantity": {
          "value": 28.50496624166157,
          "unit": "kg/m2"
        }
      },
      "request": {
        "method": "PUT",
        "url": "http://localhost:8080/cqf-ruler/baseDstu3/Observation/Observation-376512"
      }
    },
    {
      "fullUrl": "http://localhost:8080/cqf-ruler/baseDstu3/Observation/Observation-376515",
      "resource": {
        "resourceType": "Observation",
        "id": "Observation-376515",
        "meta": {
          "profile": [
            "http://hl7.org/fhir/us/hedis/StructureDefinition/hedis-observation"
          ]
        },
        "status": "final",
        "code": {
          "coding": [
            {
              "system": "http://loinc.org",
              "code": "55284-4",
              "display": "Blood Pressure"
            }
          ]
        },
        "subject": {
          "reference": "Patient/Patient-6522",
          "display": "Jamie Cain Melendez"
        },
        "context": {
          "reference": "Encounter/Encounter-1690",
          "display": "Wellness Visit"
        },
        "effectiveDateTime": "2006-02-24T00:00:00-05:00",
        "valueQuantity": {
          "value": 97.58552292651525,
          "unit": "mmHg"
        },
        "component": [
          {
            "code": {
              "coding": [
                {
                  "system": "http://loinc.org",
                  "code": "8480-6",
                  "display": "Systolic Blood Pressure"
                }
              ]
            }
          },
          {
            "code": {
              "coding": [
                {
                  "system": "http://loinc.org",
                  "code": "8462-4",
                  "display": "Diastolic Blood Pressure"
                }
              ]
            }
          }
        ]
      },
      "request": {
        "method": "PUT",
        "url": "http://localhost:8080/cqf-ruler/baseDstu3/Observation/Observation-376515"
      }
    }
  ]
}