{
  "resourceType": "Bundle",
  "id": "Doris-Bertha-Francis-6526-Encounter-673",
  "type": "transaction",
  "entry": [
    {
      "fullUrl": "http://localhost:8080/cqf-ruler/baseDstu3Encounter/Encounter-673",
      "resource": {
        "resourceType": "Encounter",
        "id": "Encounter-673",
        "status": "finished",
        "class": {
          "system": "http://hl7.org/fhir/encounter-class",
          "code": "outpatient",
          "display": "Inpatient"
        },
        "subject": {
          "reference": "Patient/Patient-6526",
          "display": "Doris Bertha Francis"
        },
        "participant": [
          {
            "period": {
              "start": "1994-11-11T00:00:00-05:00",
              "end": "1994-11-11T00:00:00-05:00"
            },
            "individual": {
              "reference": "Practitioner/Practitioner-2523",
              "display": "Dean Andrew Davis MD"
            }
          }
        ],
        "period": {
          "start": "1994-11-11T00:00:00-05:00",
          "end": "1994-11-11T00:00:00-05:00"
        },
        "location": [
          {
            "location": {
              "reference": "Location/Location-1102",
              "display": "Pediatric and Adult Medicine"
            }
          }
        ],
        "serviceProvider": {
          "reference": "Organization/Organization-1102",
          "display": "Pediatric and Adult Medicine"
        }
      },
      "request": {
        "method": "PUT",
        "url": "http://localhost:8080/cqf-ruler/baseDstu3Encounter/Encounter-673"
      }
    },
    {
      "fullUrl": "http://localhost:8080/cqf-ruler/baseDstu3Immunization/Immunization-89653",
      "resource": {
        "resourceType": "Immunization",
        "id": "Immunization-89653",
        "status": "completed",
        "notGiven": false,
        "vaccineCode": {
          "coding": [
            {
              "system": "http://hl7.org/fhir/sid/cvx",
              "code": "140",
              "display": "Influenza, seasonal, injectable, preservative free"
            }
          ]
        },
        "patient": {
          "reference": "Patient/Patient-6526",
          "display": "Doris Bertha Francis"
        },
        "date": "1994-11-11T00:00:00-05:00",
        "primarySource": true,
        "location": {
          "reference": "Location/Location-1102",
          "display": "Pediatric and Adult Medicine"
        },
        "practitioner": [
          {
            "actor": {
              "reference": "Practitioner/Practitioner-2523",
              "display": "Dean Andrew Davis MD"
            }
          }
        ]
      },
      "request": {
        "method": "PUT",
        "url": "http://localhost:8080/cqf-ruler/baseDstu3Immunization/Immunization-89653"
      }
    },
    {
      "fullUrl": "http://localhost:8080/cqf-ruler/baseDstu3Procedure/Procedure-129441",
      "resource": {
        "resourceType": "Procedure",
        "id": "Procedure-129441",
        "status": "completed",
        "code": {
          "coding": [
            {
              "system": "http://www.ama-assn.org/go/cpt",
              "code": "82270",
              "display": "Blood, occult, by peroxidase activity (eg, guaiac), qualitative; feces, consecutive collected specimens with single determination, for colorectal neoplasm screening (ie, patient was provided 3 cards or single triple card for consecutive collection)"
            }
          ]
        },
        "subject": {
          "reference": "Patient/Patient-6526",
          "display": "Doris Bertha Francis"
        },
        "context": {
          "reference": "Encounter/Encounter-673",
          "display": "Wellness Visit"
        },
        "performedPeriod": {
          "start": "1994-11-11T00:00:00-05:00",
          "end": "1994-11-11T00:00:00-05:00"
        },
        "performer": [
          {
            "actor": {
              "reference": "Practitioner/Practitioner-2523",
              "display": "Dean Andrew Davis MD"
            }
          }
        ],
        "location": {
          "reference": "Location/Location-1102",
          "display": "Pediatric and Adult Medicine"
        }
      },
      "request": {
        "method": "PUT",
        "url": "http://localhost:8080/cqf-ruler/baseDstu3Procedure/Procedure-129441"
      }
    },
    {
      "fullUrl": "http://localhost:8080/cqf-ruler/baseDstu3Observation/Observation-129442",
      "resource": {
        "resourceType": "Observation",
        "id": "Observation-129442",
        "status": "final",
        "code": {
          "coding": [
            {
              "system": "http://www.ama-assn.org/go/cpt",
              "code": "82270",
              "display": "Blood, occult, by peroxidase activity (eg, guaiac), qualitative; feces, consecutive collected specimens with single determination, for colorectal neoplasm screening (ie, patient was provided 3 cards or single triple card for consecutive collection)"
            }
          ]
        },
        "subject": {
          "reference": "Patient/Patient-6526",
          "display": "Doris Bertha Francis"
        },
        "context": {
          "reference": "Encounter/Encounter-673",
          "display": "Wellness Visit"
        },
        "effectivePeriod": {
          "start": "1994-11-11T00:00:00-05:00",
          "end": "1994-11-11T00:00:00-05:00"
        },
        "performer": [
          {
            "reference": "Practitioner/Practitioner-2523",
            "display": "Dean Andrew Davis MD"
          }
        ],
        "valueString": "NEGATIVE"
      },
      "request": {
        "method": "PUT",
        "url": "http://localhost:8080/cqf-ruler/baseDstu3Observation/Observation-129442"
      }
    },
    {
      "fullUrl": "http://localhost:8080/cqf-ruler/baseDstu3Procedure/Procedure-129443",
      "resource": {
        "resourceType": "Procedure",
        "id": "Procedure-129443",
        "status": "completed",
        "code": {
          "coding": [
            {
              "system": "http://www.ama-assn.org/go/cpt",
              "code": "87624",
              "display": "Infectious agent detection by nucleic acid (DNA or RNA); Human Papillomavirus (HPV), high-risk types (eg, 16, 18, 31, 33, 35, 39, 45, 51, 52, 56, 58, 59, 68)"
            }
          ]
        },
        "subject": {
          "reference": "Patient/Patient-6526",
          "display": "Doris Bertha Francis"
        },
        "context": {
          "reference": "Encounter/Encounter-673",
          "display": "Wellness Visit"
        },
        "performedPeriod": {
          "start": "1994-11-11T00:00:00-05:00",
          "end": "1994-11-11T00:00:00-05:00"
        },
        "performer": [
          {
            "actor": {
              "reference": "Practitioner/Practitioner-2523",
              "display": "Dean Andrew Davis MD"
            }
          }
        ],
        "location": {
          "reference": "Location/Location-1102",
          "display": "Pediatric and Adult Medicine"
        }
      },
      "request": {
        "method": "PUT",
        "url": "http://localhost:8080/cqf-ruler/baseDstu3Procedure/Procedure-129443"
      }
    },
    {
      "fullUrl": "http://localhost:8080/cqf-ruler/baseDstu3Observation/Observation-129444",
      "resource": {
        "resourceType": "Observation",
        "id": "Observation-129444",
        "status": "final",
        "code": {
          "coding": [
            {
              "system": "http://snomed.info/sct",
              "code": "289829007",
              "display": "Normal uterine cervix (finding)"
            }
          ]
        },
        "subject": {
          "reference": "Patient/Patient-6526",
          "display": "Doris Bertha Francis"
        },
        "context": {
          "reference": "Encounter/Encounter-673",
          "display": "Wellness Visit"
        },
        "effectivePeriod": {
          "start": "1994-11-11T00:00:00-05:00",
          "end": "1994-11-11T00:00:00-05:00"
        },
        "performer": [
          {
            "reference": "Practitioner/Practitioner-2523",
            "display": "Dean Andrew Davis MD"
          }
        ],
        "valueString": "NEGATIVE"
      },
      "request": {
        "method": "PUT",
        "url": "http://localhost:8080/cqf-ruler/baseDstu3Observation/Observation-129444"
      }
    },
    {
      "fullUrl": "http://localhost:8080/cqf-ruler/baseDstu3DiagnosticReport/DiagnosticReport-129445",
      "resource": {
        "resourceType": "DiagnosticReport",
        "id": "DiagnosticReport-129445",
        "status": "final",
        "code": {
          "coding": [
            {
              "system": "http://loinc.org",
              "code": "10524-7",
              "display": "Microscopic observation [Identifier] in Cervix by Cyto stain"
            }
          ]
        },
        "subject": {
          "reference": "Patient/Patient-6526",
          "display": "Doris Bertha Francis"
        },
        "context": {
          "reference": "Encounter/Encounter-673",
          "display": "Wellness Visit"
        },
        "effectivePeriod": {
          "start": "1994-11-11T00:00:00-05:00",
          "end": "1994-11-11T00:00:00-05:00"
        },
        "issued": "1994-11-11T00:00:00.000-05:00",
        "result": [
          {
            "reference": "Observation/Observation-129444",
            "display": "No_Cancer_Detected"
          }
        ]
      },
      "request": {
        "method": "PUT",
        "url": "http://localhost:8080/cqf-ruler/baseDstu3DiagnosticReport/DiagnosticReport-129445"
      }
    },
    {
      "fullUrl": "http://localhost:8080/cqf-ruler/baseDstu3Observation/Observation-129447",
      "resource": {
        "resourceType": "Observation",
        "id": "Observation-129447",
        "status": "final",
        "code": {
          "coding": [
            {
              "system": "http://loinc.org",
              "code": "8302-2",
              "display": "Height"
            }
          ]
        },
        "subject": {
          "reference": "Patient/Patient-6526",
          "display": "Doris Bertha Francis"
        },
        "context": {
          "reference": "Encounter/Encounter-673",
          "display": "Wellness Visit"
        },
        "effectiveDateTime": "1994-11-11T00:00:00-05:00",
        "performer": [
          {
            "reference": "Practitioner/Practitioner-2523",
            "display": "Dean Andrew Davis MD"
          }
        ],
        "valueQuantity": {
          "value": 171.6,
          "unit": "cm"
        }
      },
      "request": {
        "method": "PUT",
        "url": "http://localhost:8080/cqf-ruler/baseDstu3Observation/Observation-129447"
      }
    },
    {
      "fullUrl": "http://localhost:8080/cqf-ruler/baseDstu3Observation/Observation-129448",
      "resource": {
        "resourceType": "Observation",
        "id": "Observation-129448",
        "status": "final",
        "code": {
          "coding": [
            {
              "system": "http://loinc.org",
              "code": "29463-7",
              "display": "Weight"
            }
          ]
        },
        "subject": {
          "reference": "Patient/Patient-6526",
          "display": "Doris Bertha Francis"
        },
        "context": {
          "reference": "Encounter/Encounter-673",
          "display": "Wellness Visit"
        },
        "effectiveDateTime": "1994-11-11T00:00:00-05:00",
        "performer": [
          {
            "reference": "Practitioner/Practitioner-2523",
            "display": "Dean Andrew Davis MD"
          }
        ],
        "valueQuantity": {
          "value": 103.33743263961503,
          "unit": "kg"
        }
      },
      "request": {
        "method": "PUT",
        "url": "http://localhost:8080/cqf-ruler/baseDstu3Observation/Observation-129448"
      }
    },
    {
      "fullUrl": "http://localhost:8080/cqf-ruler/baseDstu3Observation/Observation-129449",
      "resource": {
        "resourceType": "Observation",
        "id": "Observation-129449",
        "status": "final",
        "code": {
          "coding": [
            {
              "system": "http://loinc.org",
              "code": "39156-5",
              "display": "BMI"
            }
          ]
        },
        "subject": {
          "reference": "Patient/Patient-6526",
          "display": "Doris Bertha Francis"
        },
        "context": {
          "reference": "Encounter/Encounter-673",
          "display": "Wellness Visit"
        },
        "effectiveDateTime": "1994-11-11T00:00:00-05:00",
        "performer": [
          {
            "reference": "Practitioner/Practitioner-2523",
            "display": "Dean Andrew Davis MD"
          }
        ],
        "valueQuantity": {
          "value": 35.093210425806966,
          "unit": "kg/m2"
        }
      },
      "request": {
        "method": "PUT",
        "url": "http://localhost:8080/cqf-ruler/baseDstu3Observation/Observation-129449"
      }
    },
    {
      "fullUrl": "http://localhost:8080/cqf-ruler/baseDstu3Observation/Observation-129450",
      "resource": {
        "resourceType": "Observation",
        "id": "Observation-129450",
        "status": "final",
        "code": {
          "coding": [
            {
              "system": "http://loinc.org",
              "code": "8310-5",
              "display": "Temperature"
            }
          ]
        },
        "subject": {
          "reference": "Patient/Patient-6526",
          "display": "Doris Bertha Francis"
        },
        "context": {
          "reference": "Encounter/Encounter-673",
          "display": "Wellness Visit"
        },
        "effectiveDateTime": "1994-11-11T00:00:00-05:00",
        "performer": [
          {
            "reference": "Practitioner/Practitioner-2523",
            "display": "Dean Andrew Davis MD"
          }
        ],
        "valueQuantity": {
          "value": 37.0,
          "unit": "C"
        }
      },
      "request": {
        "method": "PUT",
        "url": "http://localhost:8080/cqf-ruler/baseDstu3Observation/Observation-129450"
      }
    },
    {
      "fullUrl": "http://localhost:8080/cqf-ruler/baseDstu3Observation/Observation-129451",
      "resource": {
        "resourceType": "Observation",
        "id": "Observation-129451",
        "status": "final",
        "code": {
          "coding": [
            {
              "system": "http://loinc.org",
              "code": "8459-0",
              "display": "Systolic Blood Pressure"
            }
          ]
        },
        "subject": {
          "reference": "Patient/Patient-6526",
          "display": "Doris Bertha Francis"
        },
        "context": {
          "reference": "Encounter/Encounter-673",
          "display": "Wellness Visit"
        },
        "effectiveDateTime": "1994-11-11T00:00:00-05:00",
        "performer": [
          {
            "reference": "Practitioner/Practitioner-2523",
            "display": "Dean Andrew Davis MD"
          }
        ],
        "valueQuantity": {
          "value": 105.64091845421989,
          "unit": "mmHg"
        }
      },
      "request": {
        "method": "PUT",
        "url": "http://localhost:8080/cqf-ruler/baseDstu3Observation/Observation-129451"
      }
    },
    {
      "fullUrl": "http://localhost:8080/cqf-ruler/baseDstu3Observation/Observation-129452",
      "resource": {
        "resourceType": "Observation",
        "id": "Observation-129452",
        "status": "final",
        "code": {
          "coding": [
            {
              "system": "http://loinc.org",
              "code": "8453-3",
              "display": "Diastolic Blood Pressure"
            }
          ]
        },
        "subject": {
          "reference": "Patient/Patient-6526",
          "display": "Doris Bertha Francis"
        },
        "context": {
          "reference": "Encounter/Encounter-673",
          "display": "Wellness Visit"
        },
        "effectiveDateTime": "1994-11-11T00:00:00-05:00",
        "performer": [
          {
            "reference": "Practitioner/Practitioner-2523",
            "display": "Dean Andrew Davis MD"
          }
        ],
        "valueQuantity": {
          "value": 72.35518991556467,
          "unit": "mmHg"
        }
      },
      "request": {
        "method": "PUT",
        "url": "http://localhost:8080/cqf-ruler/baseDstu3Observation/Observation-129452"
      }
    },
    {
      "fullUrl": "http://localhost:8080/cqf-ruler/baseDstu3DiagnosticReport/DiagnosticReport-129446",
      "resource": {
        "resourceType": "DiagnosticReport",
        "id": "DiagnosticReport-129446",
        "status": "final",
        "code": {
          "coding": [
            {
              "system": "http://loinc.org",
              "code": "8716-3",
              "display": "Vital Signs Panel"
            }
          ]
        },
        "subject": {
          "reference": "Patient/Patient-6526",
          "display": "Doris Bertha Francis"
        },
        "context": {
          "reference": "Encounter/Encounter-673",
          "display": "Wellness Visit"
        },
        "effectivePeriod": {
          "start": "1994-11-11T00:00:00-05:00",
          "end": "1994-11-11T00:00:00-05:00"
        },
        "issued": "1994-11-11T00:00:00.000-05:00",
        "result": [
          {
            "reference": "Observation/Observation-129447",
            "display": "Height"
          },
          {
            "reference": "Observation/Observation-129448",
            "display": "Weight"
          },
          {
            "reference": "Observation/Observation-129449",
            "display": "BMI"
          },
          {
            "reference": "Observation/Observation-129450",
            "display": "Temperature"
          },
          {
            "reference": "Observation/Observation-129451",
            "display": "Systolic Blood Pressure"
          },
          {
            "reference": "Observation/Observation-129452",
            "display": "Diastolic Blood Pressure"
          }
        ]
      },
      "request": {
        "method": "PUT",
        "url": "http://localhost:8080/cqf-ruler/baseDstu3DiagnosticReport/DiagnosticReport-129446"
      }
    }
  ]
}