{
  "resourceType": "Bundle",
  "id": "Herman-Galloway-Gonzalez-6504-Encounter-4375",
  "type": "transaction",
  "entry": [
    {
      "fullUrl": "http://localhost:8080/cqf-ruler/baseDstu3/Encounter/Encounter-4375",
      "resource": {
        "resourceType": "Encounter",
        "id": "Encounter-4375",
        "meta": {
          "profile": [
            "http://hl7.org/fhir/us/hedis/StructureDefinition/hedis-encounter"
          ]
        },
        "status": "finished",
        "class": {
          "system": "http://hl7.org/fhir/encounter-class",
          "code": "outpatient",
          "display": "Outpatient"
        },
        "type": [
          {
            "coding": [
              {
                "system": "http://www.ama-assn.org/go/cpt",
                "code": "90837",
                "display": "PSYTX W PT 60 MINUTES"
              }
            ]
          }
        ],
        "subject": {
          "reference": "Patient/Patient-6504",
          "display": "Herman Galloway Gonzalez"
        },
        "participant": [
          {
            "period": {
              "start": "2017-10-06T01:00:00-04:00",
              "end": "2017-10-06T01:00:00-04:00"
            },
            "individual": {
              "reference": "Practitioner/Practitioner-2521",
              "display": "Heather Fuentes Guerra MD"
            }
          }
        ],
        "period": {
          "start": "2017-10-06T01:00:00-04:00",
          "end": "2017-10-06T01:00:00-04:00"
        },
        "reason": [
          {
            "coding": [
              {
                "system": "http://snomed.info/sct",
                "code": "718636001",
                "display": "Minimal depression (disorder)"
              }
            ]
          }
        ],
        "location": [
          {
            "location": {
              "reference": "Location/Location-1106",
              "display": "Cranston Family Medical"
            }
          }
        ],
        "serviceProvider": {
          "reference": "Organization/Organization-1106",
          "display": "Cranston Family Medical"
        }
      },
      "request": {
        "method": "PUT",
        "url": "http://localhost:8080/cqf-ruler/baseDstu3/Encounter/Encounter-4375"
      }
    },
    {
      "fullUrl": "http://localhost:8080/cqf-ruler/baseDstu3/Procedure/Procedure-693378",
      "resource": {
        "resourceType": "Procedure",
        "id": "Procedure-693378",
        "meta": {
          "profile": [
            "http://hl7.org/fhir/us/hedis/StructureDefinition/hedis-procedure"
          ]
        },
        "status": "completed",
        "code": {
          "coding": [
            {
              "system": "http://test",
              "code": "2.16.840.1.113883.3.67.1.101.11.723",
              "display": "2.16.840.1.113883.3.67.1.101.11.723"
            }
          ]
        },
        "subject": {
          "reference": "Patient/Patient-6504",
          "display": "Herman Galloway Gonzalez"
        },
        "context": {
          "reference": "Encounter/Encounter-4375",
          "display": "DRR_Encounter"
        },
        "performedPeriod": {
          "start": "2017-10-06T01:00:00-04:00",
          "end": "2017-10-06T01:00:00-04:00"
        },
        "performer": [
          {
            "actor": {
              "reference": "Practitioner/Practitioner-2521",
              "display": "Heather Fuentes Guerra MD"
            }
          }
        ],
        "location": {
          "reference": "Location/Location-1106",
          "display": "Cranston Family Medical"
        }
      },
      "request": {
        "method": "PUT",
        "url": "http://localhost:8080/cqf-ruler/baseDstu3/Procedure/Procedure-693378"
      }
    },
    {
      "fullUrl": "http://localhost:8080/cqf-ruler/baseDstu3/Observation/Observation-693379",
      "resource": {
        "resourceType": "Observation",
        "id": "Observation-693379",
        "meta": {
          "profile": [
            "http://hl7.org/fhir/us/hedis/StructureDefinition/hedis-observation"
          ]
        },
        "status": "final",
        "code": {
          "coding": [
            {
              "system": "http://cqframework.info/codesystem/placeholder",
              "code": "00009",
              "display": "PHQ-9 Modified Score"
            }
          ]
        },
        "subject": {
          "reference": "Patient/Patient-6504",
          "display": "Herman Galloway Gonzalez"
        },
        "context": {
          "reference": "Encounter/Encounter-4375",
          "display": "DRR_Encounter"
        },
        "effectiveDateTime": "2017-10-06T01:00:00-04:00",
        "performer": [
          {
            "reference": "Practitioner/Practitioner-2521",
            "display": "Heather Fuentes Guerra MD"
          }
        ],
        "valueQuantity": {
          "value": 0.0,
          "unit": "score"
        }
      },
      "request": {
        "method": "PUT",
        "url": "http://localhost:8080/cqf-ruler/baseDstu3/Observation/Observation-693379"
      }
    },
    {
      "fullUrl": "http://localhost:8080/cqf-ruler/baseDstu3/DiagnosticReport/DiagnosticReport-693380",
      "resource": {
        "resourceType": "DiagnosticReport",
        "id": "DiagnosticReport-693380",
        "meta": {
          "profile": [
            "http://hl7.org/fhir/us/hedis/StructureDefinition/hedis-diagnosticreport"
          ]
        },
        "status": "final",
        "category": {
          "coding": [
            {
              "system": "http://hl7.org/fhir/ValueSet/diagnostic-service-sections",
              "code": "OTH",
              "display": "Other"
            }
          ]
        },
        "code": {
          "coding": [
            {
              "system": "http://snomed.info/sct",
              "code": "42810003",
              "display": "Major depression in remission (disorder)"
            }
          ]
        },
        "subject": {
          "reference": "Patient/Patient-6504",
          "display": "Herman Galloway Gonzalez"
        },
        "context": {
          "reference": "Encounter/Encounter-4375",
          "display": "DRR_Encounter"
        },
        "effectivePeriod": {
          "start": "2017-10-06T01:00:00-04:00",
          "end": "2017-10-06T01:00:00-04:00"
        },
        "issued": "2017-10-06T01:00:00.000-04:00"
      },
      "request": {
        "method": "PUT",
        "url": "http://localhost:8080/cqf-ruler/baseDstu3/DiagnosticReport/DiagnosticReport-693380"
      }
    },
    {
      "fullUrl": "http://localhost:8080/cqf-ruler/baseDstu3/Observation/Observation-693383",
      "resource": {
        "resourceType": "Observation",
        "id": "Observation-693383",
        "status": "final",
        "code": {
          "coding": [
            {
              "system": "http://loinc.org",
              "code": "8302-2",
              "display": "Height"
            }
          ]
        },
        "subject": {
          "reference": "Patient/Patient-6504",
          "display": "Herman Galloway Gonzalez"
        },
        "context": {
          "reference": "Encounter/Encounter-4375",
          "display": "DRR_Encounter"
        },
        "effectiveDateTime": "2017-10-06T01:00:00-04:00",
        "performer": [
          {
            "reference": "Practitioner/Practitioner-2521",
            "display": "Heather Fuentes Guerra MD"
          }
        ],
        "valueQuantity": {
          "value": 165.0,
          "unit": "cm"
        }
      },
      "request": {
        "method": "PUT",
        "url": "http://localhost:8080/cqf-ruler/baseDstu3/Observation/Observation-693383"
      }
    },
    {
      "fullUrl": "http://localhost:8080/cqf-ruler/baseDstu3/Observation/Observation-693384",
      "resource": {
        "resourceType": "Observation",
        "id": "Observation-693384",
        "status": "final",
        "code": {
          "coding": [
            {
              "system": "http://loinc.org",
              "code": "29463-7",
              "display": "Weight"
            }
          ]
        },
        "subject": {
          "reference": "Patient/Patient-6504",
          "display": "Herman Galloway Gonzalez"
        },
        "context": {
          "reference": "Encounter/Encounter-4375",
          "display": "DRR_Encounter"
        },
        "effectiveDateTime": "2017-10-06T01:00:00-04:00",
        "performer": [
          {
            "reference": "Practitioner/Practitioner-2521",
            "display": "Heather Fuentes Guerra MD"
          }
        ],
        "valueQuantity": {
          "value": 76.95683913695999,
          "unit": "kg"
        }
      },
      "request": {
        "method": "PUT",
        "url": "http://localhost:8080/cqf-ruler/baseDstu3/Observation/Observation-693384"
      }
    },
    {
      "fullUrl": "http://localhost:8080/cqf-ruler/baseDstu3/Observation/Observation-693385",
      "resource": {
        "resourceType": "Observation",
        "id": "Observation-693385",
        "status": "final",
        "code": {
          "coding": [
            {
              "system": "http://loinc.org",
              "code": "39156-5",
              "display": "BMI"
            }
          ]
        },
        "subject": {
          "reference": "Patient/Patient-6504",
          "display": "Herman Galloway Gonzalez"
        },
        "context": {
          "reference": "Encounter/Encounter-4375",
          "display": "DRR_Encounter"
        },
        "effectiveDateTime": "2017-10-06T01:00:00-04:00",
        "performer": [
          {
            "reference": "Practitioner/Practitioner-2521",
            "display": "Heather Fuentes Guerra MD"
          }
        ],
        "valueQuantity": {
          "value": 28.266974889608814,
          "unit": "kg/m2"
        }
      },
      "request": {
        "method": "PUT",
        "url": "http://localhost:8080/cqf-ruler/baseDstu3/Observation/Observation-693385"
      }
    },
    {
      "fullUrl": "http://localhost:8080/cqf-ruler/baseDstu3/Observation/Observation-693386",
      "resource": {
        "resourceType": "Observation",
        "id": "Observation-693386",
        "status": "final",
        "code": {
          "coding": [
            {
              "system": "http://loinc.org",
              "code": "8310-5",
              "display": "Temperature"
            }
          ]
        },
        "subject": {
          "reference": "Patient/Patient-6504",
          "display": "Herman Galloway Gonzalez"
        },
        "context": {
          "reference": "Encounter/Encounter-4375",
          "display": "DRR_Encounter"
        },
        "effectiveDateTime": "2017-10-06T01:00:00-04:00",
        "performer": [
          {
            "reference": "Practitioner/Practitioner-2521",
            "display": "Heather Fuentes Guerra MD"
          }
        ],
        "valueQuantity": {
          "value": 37.0,
          "unit": "C"
        }
      },
      "request": {
        "method": "PUT",
        "url": "http://localhost:8080/cqf-ruler/baseDstu3/Observation/Observation-693386"
      }
    },
    {
      "fullUrl": "http://localhost:8080/cqf-ruler/baseDstu3/Observation/Observation-693387",
      "resource": {
        "resourceType": "Observation",
        "id": "Observation-693387",
        "status": "final",
        "code": {
          "coding": [
            {
              "system": "http://loinc.org",
              "code": "8459-0",
              "display": "Systolic Blood Pressure"
            }
          ]
        },
        "subject": {
          "reference": "Patient/Patient-6504",
          "display": "Herman Galloway Gonzalez"
        },
        "context": {
          "reference": "Encounter/Encounter-4375",
          "display": "DRR_Encounter"
        },
        "effectiveDateTime": "2017-10-06T01:00:00-04:00",
        "performer": [
          {
            "reference": "Practitioner/Practitioner-2521",
            "display": "Heather Fuentes Guerra MD"
          }
        ],
        "valueQuantity": {
          "value": 169.99754314990554,
          "unit": "mmHg"
        }
      },
      "request": {
        "method": "PUT",
        "url": "http://localhost:8080/cqf-ruler/baseDstu3/Observation/Observation-693387"
      }
    },
    {
      "fullUrl": "http://localhost:8080/cqf-ruler/baseDstu3/Observation/Observation-693388",
      "resource": {
        "resourceType": "Observation",
        "id": "Observation-693388",
        "status": "final",
        "code": {
          "coding": [
            {
              "system": "http://loinc.org",
              "code": "8453-3",
              "display": "Diastolic Blood Pressure"
            }
          ]
        },
        "subject": {
          "reference": "Patient/Patient-6504",
          "display": "Herman Galloway Gonzalez"
        },
        "context": {
          "reference": "Encounter/Encounter-4375",
          "display": "DRR_Encounter"
        },
        "effectiveDateTime": "2017-10-06T01:00:00-04:00",
        "performer": [
          {
            "reference": "Practitioner/Practitioner-2521",
            "display": "Heather Fuentes Guerra MD"
          }
        ],
        "valueQuantity": {
          "value": 60.257893405125365,
          "unit": "mmHg"
        }
      },
      "request": {
        "method": "PUT",
        "url": "http://localhost:8080/cqf-ruler/baseDstu3/Observation/Observation-693388"
      }
    },
    {
      "fullUrl": "http://localhost:8080/cqf-ruler/baseDstu3/DiagnosticReport/DiagnosticReport-693382",
      "resource": {
        "resourceType": "DiagnosticReport",
        "id": "DiagnosticReport-693382",
        "meta": {
          "profile": [
            "http://hl7.org/fhir/us/hedis/StructureDefinition/hedis-diagnosticreport"
          ]
        },
        "status": "final",
        "category": {
          "coding": [
            {
              "system": "http://hl7.org/fhir/ValueSet/diagnostic-service-sections",
              "code": "LAB",
              "display": "Laboratory"
            }
          ]
        },
        "code": {
          "coding": [
            {
              "system": "http://loinc.org",
              "code": "8716-3",
              "display": "Vital Signs Panel"
            }
          ]
        },
        "subject": {
          "reference": "Patient/Patient-6504",
          "display": "Herman Galloway Gonzalez"
        },
        "context": {
          "reference": "Encounter/Encounter-4375",
          "display": "DRR_Encounter"
        },
        "effectivePeriod": {
          "start": "2017-10-06T01:00:00-04:00",
          "end": "2017-10-06T01:00:00-04:00"
        },
        "issued": "2017-10-06T01:00:00.000-04:00",
        "result": [
          {
            "reference": "Observation/Observation-693383",
            "display": "Height"
          },
          {
            "reference": "Observation/Observation-693384",
            "display": "Weight"
          },
          {
            "reference": "Observation/Observation-693385",
            "display": "BMI"
          },
          {
            "reference": "Observation/Observation-693386",
            "display": "Temperature"
          },
          {
            "reference": "Observation/Observation-693387",
            "display": "Systolic Blood Pressure"
          },
          {
            "reference": "Observation/Observation-693388",
            "display": "Diastolic Blood Pressure"
          }
        ]
      },
      "request": {
        "method": "PUT",
        "url": "http://localhost:8080/cqf-ruler/baseDstu3/DiagnosticReport/DiagnosticReport-693382"
      }
    }
  ]
}