{
  "resourceType": "Bundle",
  "id": "Herman Galloway Gonzalez-6504-Encounter-381",
  "type": "transaction",
  "entry": [
    {
      "fullUrl": "http://localhost:8080/cqf-ruler/baseDstu3/Encounter/Encounter-381",
      "resource": {
        "resourceType": "Encounter",
        "id": "Encounter-381",
        "status": "finished",
        "class": {
          "system": "http://hl7.org/fhir/encounter-class",
          "code": "outpatient",
          "display": "Inpatient"
        },
        "subject": {
          "reference": "Patient/Patient-6504",
          "display": "Herman Galloway Gonzalez"
        },
        "participant": [
          {
            "period": {
              "start": "1990-08-13T01:00:00-04:00",
              "end": "1990-08-13T01:00:00-04:00"
            },
            "individual": {
              "reference": "Practitioner/Practitioner-2521",
              "display": "Heather Fuentes Guerra MD"
            }
          }
        ],
        "period": {
          "start": "1990-08-13T01:00:00-04:00",
          "end": "1990-08-13T01:00:00-04:00"
        },
        "location": [
          {
            "location": {
              "reference": "Location/Location-1106",
              "display": "Cranston Family Medical"
            }
          }
        ],
        "serviceProvider": {
          "reference": "Organization/Organization-1106",
          "display": "Cranston Family Medical"
        }
      },
      "request": {
        "method": "PUT",
        "url": "http://localhost:8080/cqf-ruler/baseDstu3/Encounter/Encounter-381"
      }
    },
    {
      "fullUrl": "http://localhost:8080/cqf-ruler/baseDstu3/Immunization/Immunization-29794",
      "resource": {
        "resourceType": "Immunization",
        "id": "Immunization-29794",
        "status": "completed",
        "notGiven": false,
        "vaccineCode": {
          "coding": [
            {
              "system": "http://hl7.org/fhir/sid/cvx",
              "code": "140",
              "display": "Influenza, seasonal, injectable, preservative free"
            }
          ]
        },
        "patient": {
          "reference": "Patient/Patient-6504",
          "display": "Herman Galloway Gonzalez"
        },
        "date": "1990-08-13T01:00:00-04:00",
        "primarySource": true,
        "location": {
          "reference": "Location/Location-1106",
          "display": "Cranston Family Medical"
        },
        "practitioner": [
          {
            "actor": {
              "reference": "Practitioner/Practitioner-2521",
              "display": "Heather Fuentes Guerra MD"
            }
          }
        ]
      },
      "request": {
        "method": "PUT",
        "url": "http://localhost:8080/cqf-ruler/baseDstu3/Immunization/Immunization-29794"
      }
    },
    {
      "fullUrl": "http://localhost:8080/cqf-ruler/baseDstu3/Observation/Observation-48160",
      "resource": {
        "resourceType": "Observation",
        "id": "Observation-48160",
        "status": "final",
        "code": {
          "coding": [
            {
              "system": "http://loinc.org",
              "code": "8302-2",
              "display": "Height"
            }
          ]
        },
        "subject": {
          "reference": "Patient/Patient-6504",
          "display": "Herman Galloway Gonzalez"
        },
        "context": {
          "reference": "Encounter/Encounter-381",
          "display": "Cranston Family Medical"
        },
        "effectiveDateTime": "1990-08-13T01:00:00-04:00",
        "performer": [
          {
            "reference": "Practitioner/Practitioner-2521",
            "display": "Heather Fuentes Guerra MD"
          }
        ],
        "valueQuantity": {
          "value": 181.7,
          "unit": "cm"
        }
      },
      "request": {
        "method": "PUT",
        "url": "http://localhost:8080/cqf-ruler/baseDstu3/Observation/Observation-48160"
      }
    },
    {
      "fullUrl": "http://localhost:8080/cqf-ruler/baseDstu3/Observation/Observation-48161",
      "resource": {
        "resourceType": "Observation",
        "id": "Observation-48161",
        "status": "final",
        "code": {
          "coding": [
            {
              "system": "http://loinc.org",
              "code": "29463-7",
              "display": "Weight"
            }
          ]
        },
        "subject": {
          "reference": "Patient/Patient-6504",
          "display": "Herman Galloway Gonzalez"
        },
        "context": {
          "reference": "Encounter/Encounter-381",
          "display": "Cranston Family Medical"
        },
        "effectiveDateTime": "1990-08-13T01:00:00-04:00",
        "performer": [
          {
            "reference": "Practitioner/Practitioner-2521",
            "display": "Heather Fuentes Guerra MD"
          }
        ],
        "valueQuantity": {
          "value": 58.747610465633244,
          "unit": "kg"
        }
      },
      "request": {
        "method": "PUT",
        "url": "http://localhost:8080/cqf-ruler/baseDstu3/Observation/Observation-48161"
      }
    },
    {
      "fullUrl": "http://localhost:8080/cqf-ruler/baseDstu3/Observation/Observation-48162",
      "resource": {
        "resourceType": "Observation",
        "id": "Observation-48162",
        "status": "final",
        "code": {
          "coding": [
            {
              "system": "http://loinc.org",
              "code": "39156-5",
              "display": "BMI"
            }
          ]
        },
        "subject": {
          "reference": "Patient/Patient-6504",
          "display": "Herman Galloway Gonzalez"
        },
        "context": {
          "reference": "Encounter/Encounter-381",
          "display": "Cranston Family Medical"
        },
        "effectiveDateTime": "1990-08-13T01:00:00-04:00",
        "performer": [
          {
            "reference": "Practitioner/Practitioner-2521",
            "display": "Heather Fuentes Guerra MD"
          }
        ],
        "valueQuantity": {
          "value": 17.79427720814252,
          "unit": "kg/m2"
        }
      },
      "request": {
        "method": "PUT",
        "url": "http://localhost:8080/cqf-ruler/baseDstu3/Observation/Observation-48162"
      }
    },
    {
      "fullUrl": "http://localhost:8080/cqf-ruler/baseDstu3/Observation/Observation-48163",
      "resource": {
        "resourceType": "Observation",
        "id": "Observation-48163",
        "status": "final",
        "code": {
          "coding": [
            {
              "system": "http://loinc.org",
              "code": "8310-5",
              "display": "Temperature"
            }
          ]
        },
        "subject": {
          "reference": "Patient/Patient-6504",
          "display": "Herman Galloway Gonzalez"
        },
        "context": {
          "reference": "Encounter/Encounter-381",
          "display": "Cranston Family Medical"
        },
        "effectiveDateTime": "1990-08-13T01:00:00-04:00",
        "performer": [
          {
            "reference": "Practitioner/Practitioner-2521",
            "display": "Heather Fuentes Guerra MD"
          }
        ],
        "valueQuantity": {
          "value": 37.0,
          "unit": "C"
        }
      },
      "request": {
        "method": "PUT",
        "url": "http://localhost:8080/cqf-ruler/baseDstu3/Observation/Observation-48163"
      }
    },
    {
      "fullUrl": "http://localhost:8080/cqf-ruler/baseDstu3/Observation/Observation-48164",
      "resource": {
        "resourceType": "Observation",
        "id": "Observation-48164",
        "status": "final",
        "code": {
          "coding": [
            {
              "system": "http://loinc.org",
              "code": "8459-0",
              "display": "Systolic Blood Pressure"
            }
          ]
        },
        "subject": {
          "reference": "Patient/Patient-6504",
          "display": "Herman Galloway Gonzalez"
        },
        "context": {
          "reference": "Encounter/Encounter-381",
          "display": "Cranston Family Medical"
        },
        "effectiveDateTime": "1990-08-13T01:00:00-04:00",
        "performer": [
          {
            "reference": "Practitioner/Practitioner-2521",
            "display": "Heather Fuentes Guerra MD"
          }
        ],
        "valueQuantity": {
          "value": 101.0147104604919,
          "unit": "mmHg"
        }
      },
      "request": {
        "method": "PUT",
        "url": "http://localhost:8080/cqf-ruler/baseDstu3/Observation/Observation-48164"
      }
    },
    {
      "fullUrl": "http://localhost:8080/cqf-ruler/baseDstu3/Observation/Observation-48165",
      "resource": {
        "resourceType": "Observation",
        "id": "Observation-48165",
        "status": "final",
        "code": {
          "coding": [
            {
              "system": "http://loinc.org",
              "code": "8453-3",
              "display": "Diastolic Blood Pressure"
            }
          ]
        },
        "subject": {
          "reference": "Patient/Patient-6504",
          "display": "Herman Galloway Gonzalez"
        },
        "context": {
          "reference": "Encounter/Encounter-381",
          "display": "Cranston Family Medical"
        },
        "effectiveDateTime": "1990-08-13T01:00:00-04:00",
        "performer": [
          {
            "reference": "Practitioner/Practitioner-2521",
            "display": "Heather Fuentes Guerra MD"
          }
        ],
        "valueQuantity": {
          "value": 78.66290791457052,
          "unit": "mmHg"
        }
      },
      "request": {
        "method": "PUT",
        "url": "http://localhost:8080/cqf-ruler/baseDstu3/Observation/Observation-48165"
      }
    },
    {
      "fullUrl": "http://localhost:8080/cqf-ruler/baseDstu3/DiagnosticReport/DiagnosticReport-48159",
      "resource": {
        "resourceType": "DiagnosticReport",
        "id": "DiagnosticReport-48159",
        "status": "final",
        "code": {
          "coding": [
            {
              "system": "http://loinc.org",
              "code": "8716-3",
              "display": "Vital Signs Panel"
            }
          ]
        },
        "subject": {
          "reference": "Patient/Patient-6504",
          "display": "Herman Galloway Gonzalez"
        },
        "context": {
          "reference": "Encounter/Encounter-381",
          "display": "Cranston Family Medical"
        },
        "effectivePeriod": {
          "start": "1990-08-13T01:00:00-04:00",
          "end": "1990-08-13T01:00:00-04:00"
        },
        "issued": "1990-08-13T01:00:00.000-04:00",
        "result": [
          {
            "reference": "Observation/Observation-48160",
            "display": "Height"
          },
          {
            "reference": "Observation/Observation-48161",
            "display": "Weight"
          },
          {
            "reference": "Observation/Observation-48162",
            "display": "BMI"
          },
          {
            "reference": "Observation/Observation-48163",
            "display": "Temperature"
          },
          {
            "reference": "Observation/Observation-48164",
            "display": "Systolic Blood Pressure"
          },
          {
            "reference": "Observation/Observation-48165",
            "display": "Diastolic Blood Pressure"
          }
        ]
      },
      "request": {
        "method": "PUT",
        "url": "http://localhost:8080/cqf-ruler/baseDstu3/DiagnosticReport/DiagnosticReport-48159"
      }
    }
  ]
}