{
  "resourceType": "Bundle",
  "id": "Perry-Ford-Tran-6536-Encounter-650",
  "type": "transaction",
  "entry": [
    {
      "fullUrl": "http://localhost:8080/cqf-ruler/baseDstu3Encounter/Encounter-650",
      "resource": {
        "resourceType": "Encounter",
        "id": "Encounter-650",
        "status": "finished",
        "class": {
          "system": "http://hl7.org/fhir/encounter-class",
          "code": "outpatient",
          "display": "Inpatient"
        },
        "subject": {
          "reference": "Patient/Patient-6536",
          "display": "Perry Ford Tran"
        },
        "participant": [
          {
            "period": {
              "start": "1994-07-17T00:00:00-04:00",
              "end": "1994-07-17T00:00:00-04:00"
            },
            "individual": {
              "reference": "Practitioner/Practitioner-2533",
              "display": "Lena Dickerson Ballard MD"
            }
          }
        ],
        "period": {
          "start": "1994-07-17T00:00:00-04:00",
          "end": "1994-07-17T00:00:00-04:00"
        },
        "location": [
          {
            "location": {
              "reference": "Location/Location-1106",
              "display": "Cranston Family Medical"
            }
          }
        ],
        "serviceProvider": {
          "reference": "Organization/Organization-1106",
          "display": "Cranston Family Medical"
        }
      },
      "request": {
        "method": "PUT",
        "url": "http://localhost:8080/cqf-ruler/baseDstu3Encounter/Encounter-650"
      }
    },
    {
      "fullUrl": "http://localhost:8080/cqf-ruler/baseDstu3Immunization/Immunization-84686",
      "resource": {
        "resourceType": "Immunization",
        "id": "Immunization-84686",
        "status": "completed",
        "notGiven": false,
        "vaccineCode": {
          "coding": [
            {
              "system": "http://hl7.org/fhir/sid/cvx",
              "code": "140",
              "display": "Influenza, seasonal, injectable, preservative free"
            }
          ]
        },
        "patient": {
          "reference": "Patient/Patient-6536",
          "display": "Perry Ford Tran"
        },
        "date": "1994-07-17T00:00:00-04:00",
        "primarySource": true,
        "location": {
          "reference": "Location/Location-1106",
          "display": "Cranston Family Medical"
        },
        "practitioner": [
          {
            "actor": {
              "reference": "Practitioner/Practitioner-2533",
              "display": "Lena Dickerson Ballard MD"
            }
          }
        ]
      },
      "request": {
        "method": "PUT",
        "url": "http://localhost:8080/cqf-ruler/baseDstu3Immunization/Immunization-84686"
      }
    },
    {
      "fullUrl": "http://localhost:8080/cqf-ruler/baseDstu3Observation/Observation-124060",
      "resource": {
        "resourceType": "Observation",
        "id": "Observation-124060",
        "status": "final",
        "code": {
          "coding": [
            {
              "system": "http://loinc.org",
              "code": "8302-2",
              "display": "Height"
            }
          ]
        },
        "subject": {
          "reference": "Patient/Patient-6536",
          "display": "Perry Ford Tran"
        },
        "context": {
          "reference": "Encounter/Encounter-650",
          "display": "Wellness Visit"
        },
        "effectiveDateTime": "1994-07-17T00:00:00-04:00",
        "performer": [
          {
            "reference": "Practitioner/Practitioner-2533",
            "display": "Lena Dickerson Ballard MD"
          }
        ],
        "valueQuantity": {
          "value": 176.8,
          "unit": "cm"
        }
      },
      "request": {
        "method": "PUT",
        "url": "http://localhost:8080/cqf-ruler/baseDstu3Observation/Observation-124060"
      }
    },
    {
      "fullUrl": "http://localhost:8080/cqf-ruler/baseDstu3Observation/Observation-124061",
      "resource": {
        "resourceType": "Observation",
        "id": "Observation-124061",
        "status": "final",
        "code": {
          "coding": [
            {
              "system": "http://loinc.org",
              "code": "29463-7",
              "display": "Weight"
            }
          ]
        },
        "subject": {
          "reference": "Patient/Patient-6536",
          "display": "Perry Ford Tran"
        },
        "context": {
          "reference": "Encounter/Encounter-650",
          "display": "Wellness Visit"
        },
        "effectiveDateTime": "1994-07-17T00:00:00-04:00",
        "performer": [
          {
            "reference": "Practitioner/Practitioner-2533",
            "display": "Lena Dickerson Ballard MD"
          }
        ],
        "valueQuantity": {
          "value": 87.28685988734057,
          "unit": "kg"
        }
      },
      "request": {
        "method": "PUT",
        "url": "http://localhost:8080/cqf-ruler/baseDstu3Observation/Observation-124061"
      }
    },
    {
      "fullUrl": "http://localhost:8080/cqf-ruler/baseDstu3Observation/Observation-124062",
      "resource": {
        "resourceType": "Observation",
        "id": "Observation-124062",
        "status": "final",
        "code": {
          "coding": [
            {
              "system": "http://loinc.org",
              "code": "39156-5",
              "display": "BMI"
            }
          ]
        },
        "subject": {
          "reference": "Patient/Patient-6536",
          "display": "Perry Ford Tran"
        },
        "context": {
          "reference": "Encounter/Encounter-650",
          "display": "Wellness Visit"
        },
        "effectiveDateTime": "1994-07-17T00:00:00-04:00",
        "performer": [
          {
            "reference": "Practitioner/Practitioner-2533",
            "display": "Lena Dickerson Ballard MD"
          }
        ],
        "valueQuantity": {
          "value": 27.924432049706112,
          "unit": "kg/m2"
        }
      },
      "request": {
        "method": "PUT",
        "url": "http://localhost:8080/cqf-ruler/baseDstu3Observation/Observation-124062"
      }
    },
    {
      "fullUrl": "http://localhost:8080/cqf-ruler/baseDstu3Observation/Observation-124063",
      "resource": {
        "resourceType": "Observation",
        "id": "Observation-124063",
        "status": "final",
        "code": {
          "coding": [
            {
              "system": "http://loinc.org",
              "code": "8310-5",
              "display": "Temperature"
            }
          ]
        },
        "subject": {
          "reference": "Patient/Patient-6536",
          "display": "Perry Ford Tran"
        },
        "context": {
          "reference": "Encounter/Encounter-650",
          "display": "Wellness Visit"
        },
        "effectiveDateTime": "1994-07-17T00:00:00-04:00",
        "performer": [
          {
            "reference": "Practitioner/Practitioner-2533",
            "display": "Lena Dickerson Ballard MD"
          }
        ],
        "valueQuantity": {
          "value": 37.0,
          "unit": "C"
        }
      },
      "request": {
        "method": "PUT",
        "url": "http://localhost:8080/cqf-ruler/baseDstu3Observation/Observation-124063"
      }
    },
    {
      "fullUrl": "http://localhost:8080/cqf-ruler/baseDstu3Observation/Observation-124064",
      "resource": {
        "resourceType": "Observation",
        "id": "Observation-124064",
        "status": "final",
        "code": {
          "coding": [
            {
              "system": "http://loinc.org",
              "code": "8459-0",
              "display": "Systolic Blood Pressure"
            }
          ]
        },
        "subject": {
          "reference": "Patient/Patient-6536",
          "display": "Perry Ford Tran"
        },
        "context": {
          "reference": "Encounter/Encounter-650",
          "display": "Wellness Visit"
        },
        "effectiveDateTime": "1994-07-17T00:00:00-04:00",
        "performer": [
          {
            "reference": "Practitioner/Practitioner-2533",
            "display": "Lena Dickerson Ballard MD"
          }
        ],
        "valueQuantity": {
          "value": 113.03323652683179,
          "unit": "mmHg"
        }
      },
      "request": {
        "method": "PUT",
        "url": "http://localhost:8080/cqf-ruler/baseDstu3Observation/Observation-124064"
      }
    },
    {
      "fullUrl": "http://localhost:8080/cqf-ruler/baseDstu3Observation/Observation-124065",
      "resource": {
        "resourceType": "Observation",
        "id": "Observation-124065",
        "status": "final",
        "code": {
          "coding": [
            {
              "system": "http://loinc.org",
              "code": "8453-3",
              "display": "Diastolic Blood Pressure"
            }
          ]
        },
        "subject": {
          "reference": "Patient/Patient-6536",
          "display": "Perry Ford Tran"
        },
        "context": {
          "reference": "Encounter/Encounter-650",
          "display": "Wellness Visit"
        },
        "effectiveDateTime": "1994-07-17T00:00:00-04:00",
        "performer": [
          {
            "reference": "Practitioner/Practitioner-2533",
            "display": "Lena Dickerson Ballard MD"
          }
        ],
        "valueQuantity": {
          "value": 79.49441080114528,
          "unit": "mmHg"
        }
      },
      "request": {
        "method": "PUT",
        "url": "http://localhost:8080/cqf-ruler/baseDstu3Observation/Observation-124065"
      }
    },
    {
      "fullUrl": "http://localhost:8080/cqf-ruler/baseDstu3DiagnosticReport/DiagnosticReport-124059",
      "resource": {
        "resourceType": "DiagnosticReport",
        "id": "DiagnosticReport-124059",
        "status": "final",
        "code": {
          "coding": [
            {
              "system": "http://loinc.org",
              "code": "8716-3",
              "display": "Vital Signs Panel"
            }
          ]
        },
        "subject": {
          "reference": "Patient/Patient-6536",
          "display": "Perry Ford Tran"
        },
        "context": {
          "reference": "Encounter/Encounter-650",
          "display": "Wellness Visit"
        },
        "effectivePeriod": {
          "start": "1994-07-17T00:00:00-04:00",
          "end": "1994-07-17T00:00:00-04:00"
        },
        "issued": "1994-07-17T00:00:00.000-04:00",
        "result": [
          {
            "reference": "Observation/Observation-124060",
            "display": "Height"
          },
          {
            "reference": "Observation/Observation-124061",
            "display": "Weight"
          },
          {
            "reference": "Observation/Observation-124062",
            "display": "BMI"
          },
          {
            "reference": "Observation/Observation-124063",
            "display": "Temperature"
          },
          {
            "reference": "Observation/Observation-124064",
            "display": "Systolic Blood Pressure"
          },
          {
            "reference": "Observation/Observation-124065",
            "display": "Diastolic Blood Pressure"
          }
        ]
      },
      "request": {
        "method": "PUT",
        "url": "http://localhost:8080/cqf-ruler/baseDstu3DiagnosticReport/DiagnosticReport-124059"
      }
    }
  ]
}