{
  "resourceType": "Bundle",
  "id": "b5ebd1b7-ccc1-46fb-9ac1-9b88aee7a29c",
  "type": "transaction",
  "entry": [
    {
      "fullUrl": "http://localhost:8080/cqf-ruler/baseDstu3/Encounter/Encounter-420",
      "resource": {
        "resourceType": "Encounter",
        "id": "Encounter-420",
        "status": "finished",
        "class": {
          "system": "http://hl7.org/fhir/encounter-class",
          "code": "other",
          "display": "Other"
        },
        "subject": {
          "reference": "Patient/Patient-1122",
          "display": "Joan Frances Chen"
        },
        "participant": [
          {
            "period": {
              "start": "2022-02-25T14:38:20-08:00",
              "end": "2022-02-25T14:38:20-08:00"
            },
            "individual": {
              "reference": "Practitioner/Practitioner-2518",
              "display": "Jane Rosemary Saunders MD"
            }
          }
        ],
        "period": {
          "start": "2022-02-25T14:38:20-08:00",
          "end": "2022-02-25T14:38:20-08:00"
        },
        "location": [
          {
            "location": {
              "reference": "Location/Location-1103",
              "display": "Acme Medical Center"
            }
          }
        ],
        "serviceProvider": {
          "reference": "Organization/Organization-1103",
          "display": "Acme Medical Center"
        }
      },
      "request": {
        "method": "PUT",
        "url": "http://localhost:8080/cqf-ruler/baseDstu3/Encounter/Encounter-420"
      }
    },
    {
      "fullUrl": "http://localhost:8080/cqf-ruler/baseDstu3/Immunization/Immunization-39743",
      "resource": {
        "resourceType": "Immunization",
        "id": "Immunization-39743",
        "status": "completed",
        "notGiven": false,
        "vaccineCode": {
          "coding": [
            {
              "system": "http://hl7.org/fhir/sid/cvx",
              "code": "140",
              "display": "Influenza, seasonal, injectable, preservative free"
            }
          ]
        },
        "patient": {
          "reference": "Patient/Patient-1122",
          "display": "Joan Frances Chen"
        },
        "date": "2022-02-21T14:38:20-08:00",
        "primarySource": true,
        "location": {
          "reference": "Location/Location-1103",
          "display": "Acme Medical Center"
        },
        "practitioner": [
          {
            "actor": {
              "reference": "Practitioner/Practitioner-2518",
              "display": "Jane Rosemary Saunders MD"
            }
          }
        ]
      },
      "request": {
        "method": "PUT",
        "url": "http://localhost:8080/cqf-ruler/baseDstu3/Immunization/Immunization-39743"
      }
    },
    {
      "fullUrl": "http://localhost:8080/cqf-ruler/baseDstu3/Observation/Observation-117968",
      "resource": {
        "resourceType": "Observation",
        "id": "Observation-117968",
        "status": "final",
        "code": {
          "coding": [
            {
              "system": "http://loinc.org",
              "code": "8480-6",
              "display": "Systolic blood pressure"
            }
          ]
        },
        "subject": {
          "reference": "Patient/Patient-1122",
          "display": "Joan Frances Chen"
        },
        "context": {
          "reference": "Encounter/Encounter-420",
          "display": "Acme Medical Center"
        },
        "effectiveDateTime": "2022-02-25T14:38:20-08:00",
        "performer": [
          {
            "reference": "Practitioner/Practitioner-2518",
            "display": "Jane Rosemary Saunders MD"
          }
        ],
        "valueQuantity": {
          "value": 127.56767091521482,
          "unit": "mmHg"
        }
      },
      "request": {
        "method": "PUT",
        "url": "http://localhost:8080/cqf-ruler/baseDstu3/Observation/Observation-117968"
      }
    },
    {
      "fullUrl": "http://localhost:8080/cqf-ruler/baseDstu3/Observation/Observation-117969",
      "resource": {
        "resourceType": "Observation",
        "id": "Observation-117969",
        "status": "final",
        "code": {
          "coding": [
            {
              "system": "http://loinc.org",
              "code": "8462-4",
              "display": "Diastolic blood pressure"
            }
          ]
        },
        "subject": {
          "reference": "Patient/Patient-1122",
          "display": "Joan Frances Chen"
        },
        "context": {
          "reference": "Encounter/Encounter-420",
          "display": "Acme Medical Center"
        },
        "effectiveDateTime": "2022-02-25T14:38:20-08:00",
        "performer": [
          {
            "reference": "Practitioner/Practitioner-2518",
            "display": "Jane Rosemary Saunders MD"
          }
        ],
        "valueQuantity": {
          "value": 64.98538445553926,
          "unit": "mmHg"
        }
      },
      "request": {
        "method": "PUT",
        "url": "http://localhost:8080/cqf-ruler/baseDstu3/Observation/Observation-117969"
      }
    },
    {
      "fullUrl": "http://localhost:8080/cqf-ruler/baseDstu3/Procedure/Procedure-117970",
      "resource": {
        "resourceType": "Procedure",
        "id": "Procedure-117970",
        "status": "completed",
        "code": {
          "coding": [
            {
              "system": "http://loinc.org",
              "code": "47527-7",
              "display": "Cytology report of Cervical or vaginal smear or scraping Cyto stain.thin prep"
            }
          ]
        },
        "subject": {
          "reference": "Patient/Patient-1122",
          "display": "Joan Frances Chen"
        },
        "context": {
          "reference": "Encounter/Encounter-420",
          "display": "Acme Medical Center"
        },
        "performedPeriod": {
          "start": "2022-02-25T14:38:20-08:00",
          "end": "2022-02-25T14:38:20-08:00"
        },
        "performer": [
          {
            "actor": {
              "reference": "Practitioner/Practitioner-2518",
              "display": "Jane Rosemary Saunders MD"
            }
          }
        ],
        "location": {
          "reference": "Location/Location-1103",
          "display": "Acme Medical Center"
        }
      },
      "request": {
        "method": "PUT",
        "url": "http://localhost:8080/cqf-ruler/baseDstu3/Procedure/Procedure-117970"
      }
    },
    {
      "fullUrl": "http://localhost:8080/cqf-ruler/baseDstu3/Observation/Observation-117971",
      "resource": {
        "resourceType": "Observation",
        "id": "Observation-117971",
        "status": "final",
        "code": {
          "coding": [
            {
              "system": "http://snomed.info/sct",
              "code": "289829007",
              "display": "Normal uterine cervix (finding)"
            }
          ]
        },
        "subject": {
          "reference": "Patient/Patient-1122",
          "display": "Joan Frances Chen"
        },
        "context": {
          "reference": "Encounter/Encounter-420",
          "display": "Acme Medical Center"
        },
        "effectiveDateTime": "2022-02-25T14:38:20-08:00",
        "performer": [
          {
            "reference": "Practitioner/Practitioner-2518",
            "display": "Jane Rosemary Saunders MD"
          }
        ],
        "valueString": "NEGATIVE"
      },
      "request": {
        "method": "PUT",
        "url": "http://localhost:8080/cqf-ruler/baseDstu3/Observation/Observation-117971"
      }
    },
    {
      "fullUrl": "http://localhost:8080/cqf-ruler/baseDstu3/DiagnosticReport/DiagnosticReport-117972",
      "resource": {
        "resourceType": "DiagnosticReport",
        "id": "DiagnosticReport-117972",
        "status": "final",
        "code": {
          "coding": [
            {
              "system": "http://loinc.org",
              "code": "37775-4",
              "display": "Breast - right Mammogram roll"
            }
          ]
        },
        "subject": {
          "reference": "Patient/Patient-1122",
          "display": "Joan Frances Chen"
        },
        "context": {
          "reference": "Encounter/Encounter-420",
          "display": "Acme Medical Center"
        },
        "effectivePeriod": {
          "start": "2022-02-25T14:38:20-08:00",
          "end": "2022-02-25T14:38:20-08:00"
        },
        "issued": "2017-08-31T14:38:20-07:00",
        "result": [
          {
            "reference": "Observation/Observation-117971",
            "display": "No_Cancer_Detected"
          }
        ]
      },
      "request": {
        "method": "PUT",
        "url": "http://localhost:8080/cqf-ruler/baseDstu3/DiagnosticReport/DiagnosticReport-117972"
      }
    },
    {
      "fullUrl": "http://localhost:8080/cqf-ruler/baseDstu3/Observation/Observation-117973",
      "resource": {
        "resourceType": "Observation",
        "id": "Observation-117973",
        "status": "final",
        "category": [
          {
            "coding": [
              {
                "system": "http://hl7.org/fhir/observation-category",
                "code": "vital-signs",
                "display": "vital-signs"
              }
            ]
          }
        ],
        "code": {
          "coding": [
            {
              "system": "http://loinc.org",
              "code": "8716-3",
              "display": "Vital Signs Panel"
            }
          ]
        },
        "subject": {
          "reference": "Patient/Patient-1122",
          "display": "Joan Frances Chen"
        },
        "context": {
          "reference": "Encounter/Encounter-420",
          "display": "Acme Medical Center"
        },
        "effectivePeriod": {
          "start": "2022-02-25T14:38:20-08:00",
          "end": "2022-02-25T14:38:20-08:00"
        },
        "valueQuantity": {
          "value": 64.98538445553926,
          "unit": "mmHg"
        },
        "component": [
          {
            "code": {
              "coding": [
                {
                  "system": "http://loinc.org",
                  "code": "8302-2",
                  "display": "Height"
                }
              ]
            }
          },
          {
            "code": {
              "coding": [
                {
                  "system": "http://loinc.org",
                  "code": "29463-7",
                  "display": "Weight"
                }
              ]
            }
          },
          {
            "code": {
              "coding": [
                {
                  "system": "http://loinc.org",
                  "code": "39156-5",
                  "display": "BMI"
                }
              ]
            }
          },
          {
            "code": {
              "coding": [
                {
                  "system": "http://loinc.org",
                  "code": "8310-5",
                  "display": "Temperature"
                }
              ]
            }
          },
          {
            "code": {
              "coding": [
                {
                  "system": "http://loinc.org",
                  "code": "8459-0",
                  "display": "Systolic Blood Pressure"
                }
              ]
            }
          },
          {
            "code": {
              "coding": [
                {
                  "system": "http://loinc.org",
                  "code": "8453-3",
                  "display": "Diastolic Blood Pressure"
                }
              ]
            }
          }
        ]
      },
      "request": {
        "method": "PUT",
        "url": "http://localhost:8080/cqf-ruler/baseDstu3/Observation/Observation-117973"
      }
    }
  ]
}