{
  "resourceType": "Bundle",
  "id": "Joan-Frances-Chen-1122-Encounter-2395",
  "type": "transaction",
  "entry": [
    {
      "fullUrl": "http://localhost:8080/cqf-ruler/baseDstu3/Encounter/Encounter-2395",
      "resource": {
        "resourceType": "Encounter",
        "id": "Encounter-2395",
        "meta": {
          "profile": [
            "http://hl7.org/fhir/us/hedis/StructureDefinition/hedis-encounter"
          ]
        },
        "status": "finished",
        "class": {
          "system": "http://hl7.org/fhir/encounter-class",
          "code": "ambulatory",
          "display": "Ambulatory"
        },
        "type": [
          {
            "coding": [
              {
                "system": "http://snomed.info/sct",
                "code": "185345009",
                "display": "Encounter for symptom"
              }
            ]
          }
        ],
        "subject": {
          "reference": "Patient/Patient-1122",
          "display": "Joan Frances Chen"
        },
        "participant": [
          {
            "period": {
              "start": "2011-04-26T21:00:00-04:00",
              "end": "2011-04-26T21:00:00-04:00"
            },
            "individual": {
              "reference": "Practitioner/Practitioner-2529",
              "display": "Stanley Floyd Nielsen MD"
            }
          }
        ],
        "period": {
          "start": "2011-04-26T21:00:00-04:00",
          "end": "2011-04-26T21:00:00-04:00"
        },
        "location": [
          {
            "location": {
              "reference": "Location/Location-1002",
              "display": "Gift of Mercy Hospital"
            }
          }
        ],
        "serviceProvider": {
          "reference": "Organization/Organization-1002",
          "display": "Gift of Mercy Hospital"
        }
      },
      "request": {
        "method": "PUT",
        "url": "http://localhost:8080/cqf-ruler/baseDstu3/Encounter/Encounter-2395"
      }
    },
    {
      "fullUrl": "http://localhost:8080/cqf-ruler/baseDstu3/Procedure/Procedure-499068",
      "resource": {
        "resourceType": "Procedure",
        "id": "Procedure-499068",
        "meta": {
          "profile": [
            "http://hl7.org/fhir/us/hedis/StructureDefinition/hedis-procedure"
          ]
        },
        "status": "completed",
        "code": {
          "coding": [
            {
              "system": "http://snomed.info/sct",
              "code": "413473000",
              "display": "Counseling about alcohol consumption (procedure)"
            }
          ]
        },
        "subject": {
          "reference": "Patient/Patient-1122",
          "display": "Joan Frances Chen"
        },
        "context": {
          "reference": "Encounter/Encounter-2395",
          "display": "Followup_Encounter"
        },
        "performedPeriod": {
          "start": "2011-04-26T21:00:00-04:00",
          "end": "2011-04-26T21:00:00-04:00"
        },
        "performer": [
          {
            "actor": {
              "reference": "Practitioner/Practitioner-2529",
              "display": "Stanley Floyd Nielsen MD"
            }
          }
        ],
        "location": {
          "reference": "Location/Location-1002",
          "display": "Gift of Mercy Hospital"
        }
      },
      "request": {
        "method": "PUT",
        "url": "http://localhost:8080/cqf-ruler/baseDstu3/Procedure/Procedure-499068"
      }
    },
    {
      "fullUrl": "http://localhost:8080/cqf-ruler/baseDstu3/Observation/Observation-499069",
      "resource": {
        "resourceType": "Observation",
        "id": "Observation-499069",
        "meta": {
          "profile": [
            "http://hl7.org/fhir/us/hedis/StructureDefinition/hedis-observation"
          ]
        },
        "status": "final",
        "code": {
          "coding": [
            {
              "system": "http://snomed.info/sct",
              "code": "413473000",
              "display": "Counseling about alcohol consumption (procedure)"
            }
          ]
        },
        "subject": {
          "reference": "Patient/Patient-1122",
          "display": "Joan Frances Chen"
        },
        "context": {
          "reference": "Encounter/Encounter-2395",
          "display": "Followup_Encounter"
        },
        "effectiveDateTime": "2011-04-26T21:00:00-04:00",
        "performer": [
          {
            "reference": "Practitioner/Practitioner-2529",
            "display": "Stanley Floyd Nielsen MD"
          }
        ],
        "valueString": "Why Not Procedure?"
      },
      "request": {
        "method": "PUT",
        "url": "http://localhost:8080/cqf-ruler/baseDstu3/Observation/Observation-499069"
      }
    },
    {
      "fullUrl": "http://localhost:8080/cqf-ruler/baseDstu3/Observation/Observation-499072",
      "resource": {
        "resourceType": "Observation",
        "id": "Observation-499072",
        "status": "final",
        "code": {
          "coding": [
            {
              "system": "http://loinc.org",
              "code": "8302-2",
              "display": "Height"
            }
          ]
        },
        "subject": {
          "reference": "Patient/Patient-1122",
          "display": "Joan Frances Chen"
        },
        "context": {
          "reference": "Encounter/Encounter-2395",
          "display": "Followup_Encounter"
        },
        "effectiveDateTime": "2011-04-26T21:00:00-04:00",
        "performer": [
          {
            "reference": "Practitioner/Practitioner-2529",
            "display": "Stanley Floyd Nielsen MD"
          }
        ],
        "valueQuantity": {
          "value": 167.7,
          "unit": "cm"
        }
      },
      "request": {
        "method": "PUT",
        "url": "http://localhost:8080/cqf-ruler/baseDstu3/Observation/Observation-499072"
      }
    },
    {
      "fullUrl": "http://localhost:8080/cqf-ruler/baseDstu3/Observation/Observation-499073",
      "resource": {
        "resourceType": "Observation",
        "id": "Observation-499073",
        "status": "final",
        "code": {
          "coding": [
            {
              "system": "http://loinc.org",
              "code": "29463-7",
              "display": "Weight"
            }
          ]
        },
        "subject": {
          "reference": "Patient/Patient-1122",
          "display": "Joan Frances Chen"
        },
        "context": {
          "reference": "Encounter/Encounter-2395",
          "display": "Followup_Encounter"
        },
        "effectiveDateTime": "2011-04-26T21:00:00-04:00",
        "performer": [
          {
            "reference": "Practitioner/Practitioner-2529",
            "display": "Stanley Floyd Nielsen MD"
          }
        ],
        "valueQuantity": {
          "value": 83.0,
          "unit": "kg"
        }
      },
      "request": {
        "method": "PUT",
        "url": "http://localhost:8080/cqf-ruler/baseDstu3/Observation/Observation-499073"
      }
    },
    {
      "fullUrl": "http://localhost:8080/cqf-ruler/baseDstu3/Observation/Observation-499074",
      "resource": {
        "resourceType": "Observation",
        "id": "Observation-499074",
        "status": "final",
        "code": {
          "coding": [
            {
              "system": "http://loinc.org",
              "code": "39156-5",
              "display": "BMI"
            }
          ]
        },
        "subject": {
          "reference": "Patient/Patient-1122",
          "display": "Joan Frances Chen"
        },
        "context": {
          "reference": "Encounter/Encounter-2395",
          "display": "Followup_Encounter"
        },
        "effectiveDateTime": "2011-04-26T21:00:00-04:00",
        "performer": [
          {
            "reference": "Practitioner/Practitioner-2529",
            "display": "Stanley Floyd Nielsen MD"
          }
        ],
        "valueQuantity": {
          "value": 29.512905495765263,
          "unit": "kg/m2"
        }
      },
      "request": {
        "method": "PUT",
        "url": "http://localhost:8080/cqf-ruler/baseDstu3/Observation/Observation-499074"
      }
    },
    {
      "fullUrl": "http://localhost:8080/cqf-ruler/baseDstu3/Observation/Observation-499075",
      "resource": {
        "resourceType": "Observation",
        "id": "Observation-499075",
        "status": "final",
        "code": {
          "coding": [
            {
              "system": "http://loinc.org",
              "code": "8310-5",
              "display": "Temperature"
            }
          ]
        },
        "subject": {
          "reference": "Patient/Patient-1122",
          "display": "Joan Frances Chen"
        },
        "context": {
          "reference": "Encounter/Encounter-2395",
          "display": "Followup_Encounter"
        },
        "effectiveDateTime": "2011-04-26T21:00:00-04:00",
        "performer": [
          {
            "reference": "Practitioner/Practitioner-2529",
            "display": "Stanley Floyd Nielsen MD"
          }
        ],
        "valueQuantity": {
          "value": 37.0,
          "unit": "C"
        }
      },
      "request": {
        "method": "PUT",
        "url": "http://localhost:8080/cqf-ruler/baseDstu3/Observation/Observation-499075"
      }
    },
    {
      "fullUrl": "http://localhost:8080/cqf-ruler/baseDstu3/Observation/Observation-499076",
      "resource": {
        "resourceType": "Observation",
        "id": "Observation-499076",
        "status": "final",
        "code": {
          "coding": [
            {
              "system": "http://loinc.org",
              "code": "8459-0",
              "display": "Systolic Blood Pressure"
            }
          ]
        },
        "subject": {
          "reference": "Patient/Patient-1122",
          "display": "Joan Frances Chen"
        },
        "context": {
          "reference": "Encounter/Encounter-2395",
          "display": "Followup_Encounter"
        },
        "effectiveDateTime": "2011-04-26T21:00:00-04:00",
        "performer": [
          {
            "reference": "Practitioner/Practitioner-2529",
            "display": "Stanley Floyd Nielsen MD"
          }
        ],
        "valueQuantity": {
          "value": 139.73750801812392,
          "unit": "mmHg"
        }
      },
      "request": {
        "method": "PUT",
        "url": "http://localhost:8080/cqf-ruler/baseDstu3/Observation/Observation-499076"
      }
    },
    {
      "fullUrl": "http://localhost:8080/cqf-ruler/baseDstu3/Observation/Observation-499077",
      "resource": {
        "resourceType": "Observation",
        "id": "Observation-499077",
        "status": "final",
        "code": {
          "coding": [
            {
              "system": "http://loinc.org",
              "code": "8453-3",
              "display": "Diastolic Blood Pressure"
            }
          ]
        },
        "subject": {
          "reference": "Patient/Patient-1122",
          "display": "Joan Frances Chen"
        },
        "context": {
          "reference": "Encounter/Encounter-2395",
          "display": "Followup_Encounter"
        },
        "effectiveDateTime": "2011-04-26T21:00:00-04:00",
        "performer": [
          {
            "reference": "Practitioner/Practitioner-2529",
            "display": "Stanley Floyd Nielsen MD"
          }
        ],
        "valueQuantity": {
          "value": 119.21557355206849,
          "unit": "mmHg"
        }
      },
      "request": {
        "method": "PUT",
        "url": "http://localhost:8080/cqf-ruler/baseDstu3/Observation/Observation-499077"
      }
    },
    {
      "fullUrl": "http://localhost:8080/cqf-ruler/baseDstu3/DiagnosticReport/DiagnosticReport-499071",
      "resource": {
        "resourceType": "DiagnosticReport",
        "id": "DiagnosticReport-499071",
        "meta": {
          "profile": [
            "http://hl7.org/fhir/us/hedis/StructureDefinition/hedis-diagnosticreport"
          ]
        },
        "status": "final",
        "category": {
          "coding": [
            {
              "system": "http://hl7.org/fhir/ValueSet/diagnostic-service-sections",
              "code": "LAB",
              "display": "Laboratory"
            }
          ]
        },
        "code": {
          "coding": [
            {
              "system": "http://loinc.org",
              "code": "8716-3",
              "display": "Vital Signs Panel"
            }
          ]
        },
        "subject": {
          "reference": "Patient/Patient-1122",
          "display": "Joan Frances Chen"
        },
        "context": {
          "reference": "Encounter/Encounter-2395",
          "display": "Followup_Encounter"
        },
        "effectivePeriod": {
          "start": "2011-04-26T21:00:00-04:00",
          "end": "2011-04-26T21:00:00-04:00"
        },
        "issued": "2011-04-26T21:00:00.000-04:00",
        "result": [
          {
            "reference": "Observation/Observation-499072",
            "display": "Height"
          },
          {
            "reference": "Observation/Observation-499073",
            "display": "Weight"
          },
          {
            "reference": "Observation/Observation-499074",
            "display": "BMI"
          },
          {
            "reference": "Observation/Observation-499075",
            "display": "Temperature"
          },
          {
            "reference": "Observation/Observation-499076",
            "display": "Systolic Blood Pressure"
          },
          {
            "reference": "Observation/Observation-499077",
            "display": "Diastolic Blood Pressure"
          }
        ]
      },
      "request": {
        "method": "PUT",
        "url": "http://localhost:8080/cqf-ruler/baseDstu3/DiagnosticReport/DiagnosticReport-499071"
      }
    }
  ]
}