{
  "resourceType": "Bundle",
  "id": "Margie-Beck-Espinoza-6545-Encounter-1457",
  "type": "transaction",
  "entry": [
    {
      "fullUrl": "http://localhost:8080/cqf-ruler/baseDstu3/Encounter/Encounter-1457",
      "resource": {
        "resourceType": "Encounter",
        "id": "Encounter-1457",
        "status": "finished",
        "class": {
          "system": "http://hl7.org/fhir/encounter-class",
          "code": "outpatient",
          "display": "Inpatient"
        },
        "subject": {
          "reference": "Patient/Patient-6545",
          "display": "Margie Beck Espinoza"
        },
        "participant": [
          {
            "period": {
              "start": "2004-03-05T00:00:00-05:00",
              "end": "2004-03-05T00:00:00-05:00"
            },
            "individual": {
              "reference": "Practitioner/Practitioner-2522",
              "display": "Lois Jean Kent MD"
            }
          }
        ],
        "period": {
          "start": "2004-03-05T00:00:00-05:00",
          "end": "2004-03-05T00:00:00-05:00"
        },
        "location": [
          {
            "location": {
              "reference": "Location/Location-1101",
              "display": "McKinley Health Center"
            }
          }
        ],
        "serviceProvider": {
          "reference": "Organization/Organization-1101",
          "display": "McKinley Health Center"
        }
      },
      "request": {
        "method": "PUT",
        "url": "http://localhost:8080/cqf-ruler/baseDstu3/Encounter/Encounter-1457"
      }
    },
    {
      "fullUrl": "http://localhost:8080/cqf-ruler/baseDstu3/Immunization/Immunization-309743",
      "resource": {
        "resourceType": "Immunization",
        "id": "Immunization-309743",
        "status": "completed",
        "notGiven": false,
        "vaccineCode": {
          "coding": [
            {
              "system": "http://hl7.org/fhir/sid/cvx",
              "code": "140",
              "display": "Influenza, seasonal, injectable, preservative free"
            }
          ]
        },
        "patient": {
          "reference": "Patient/Patient-6545",
          "display": "Margie Beck Espinoza"
        },
        "date": "2004-03-05T00:00:00-05:00",
        "primarySource": true,
        "location": {
          "reference": "Location/Location-1101",
          "display": "McKinley Health Center"
        },
        "practitioner": [
          {
            "actor": {
              "reference": "Practitioner/Practitioner-2522",
              "display": "Lois Jean Kent MD"
            }
          }
        ]
      },
      "request": {
        "method": "PUT",
        "url": "http://localhost:8080/cqf-ruler/baseDstu3/Immunization/Immunization-309743"
      }
    },
    {
      "fullUrl": "http://localhost:8080/cqf-ruler/baseDstu3/Observation/Observation-333158",
      "resource": {
        "resourceType": "Observation",
        "id": "Observation-333158",
        "status": "final",
        "code": {
          "coding": [
            {
              "system": "http://loinc.org",
              "code": "8480-6",
              "display": "Systolic blood pressure"
            }
          ]
        },
        "subject": {
          "reference": "Patient/Patient-6545",
          "display": "Margie Beck Espinoza"
        },
        "context": {
          "reference": "Encounter/Encounter-1457",
          "display": "Wellness Visit"
        },
        "effectivePeriod": {
          "start": "2004-03-05T00:00:00-05:00",
          "end": "2004-03-05T00:00:00-05:00"
        },
        "performer": [
          {
            "reference": "Practitioner/Practitioner-2522",
            "display": "Lois Jean Kent MD"
          }
        ],
        "valueQuantity": {
          "value": 147.6655627340665,
          "unit": "mmHg"
        }
      },
      "request": {
        "method": "PUT",
        "url": "http://localhost:8080/cqf-ruler/baseDstu3/Observation/Observation-333158"
      }
    },
    {
      "fullUrl": "http://localhost:8080/cqf-ruler/baseDstu3/Observation/Observation-333159",
      "resource": {
        "resourceType": "Observation",
        "id": "Observation-333159",
        "status": "final",
        "code": {
          "coding": [
            {
              "system": "http://loinc.org",
              "code": "8462-4",
              "display": "Diastolic blood pressure"
            }
          ]
        },
        "subject": {
          "reference": "Patient/Patient-6545",
          "display": "Margie Beck Espinoza"
        },
        "context": {
          "reference": "Encounter/Encounter-1457",
          "display": "Wellness Visit"
        },
        "effectivePeriod": {
          "start": "2004-03-05T00:00:00-05:00",
          "end": "2004-03-05T00:00:00-05:00"
        },
        "performer": [
          {
            "reference": "Practitioner/Practitioner-2522",
            "display": "Lois Jean Kent MD"
          }
        ],
        "valueQuantity": {
          "value": 75.96226404587306,
          "unit": "mmHg"
        }
      },
      "request": {
        "method": "PUT",
        "url": "http://localhost:8080/cqf-ruler/baseDstu3/Observation/Observation-333159"
      }
    },
    {
      "fullUrl": "http://localhost:8080/cqf-ruler/baseDstu3/Condition/Condition-333160",
      "resource": {
        "resourceType": "Condition",
        "id": "Condition-333160",
        "clinicalStatus": "active",
        "verificationStatus": "confirmed",
        "code": {
          "coding": [
            {
              "system": "http://hl7.org/fhir/sid/icd-9-cm",
              "code": "401.9",
              "display": "Unspecified essential hypertension"
            }
          ]
        },
        "subject": {
          "reference": "Patient/Patient-6545",
          "display": "Margie Beck Espinoza"
        },
        "context": {
          "reference": "Encounter/Encounter-1457",
          "display": "Wellness Visit"
        },
        "onsetDateTime": "2004-03-05T00:00:00-05:00",
        "assertedDate": "2004-03-05T00:00:00-05:00",
        "asserter": {
          "reference": "Practitioner/Practitioner-2522",
          "display": "Lois Jean Kent MD"
        }
      },
      "request": {
        "method": "PUT",
        "url": "http://localhost:8080/cqf-ruler/baseDstu3/Condition/Condition-333160"
      }
    },
    {
      "fullUrl": "http://localhost:8080/cqf-ruler/baseDstu3/Observation/Observation-333161",
      "resource": {
        "resourceType": "Observation",
        "id": "Observation-333161",
        "status": "final",
        "code": {
          "coding": [
            {
              "system": "http://loinc.org",
              "code": "8302-2",
              "display": "Body Height"
            }
          ]
        },
        "subject": {
          "reference": "Patient/Patient-6545",
          "display": "Margie Beck Espinoza"
        },
        "context": {
          "reference": "Encounter/Encounter-1457",
          "display": "Wellness Visit"
        },
        "effectivePeriod": {
          "start": "2004-03-05T00:00:00-05:00",
          "end": "2004-03-05T00:00:00-05:00"
        },
        "performer": [
          {
            "reference": "Practitioner/Practitioner-2522",
            "display": "Lois Jean Kent MD"
          }
        ],
        "valueQuantity": {
          "value": 171.6,
          "unit": "cm"
        }
      },
      "request": {
        "method": "PUT",
        "url": "http://localhost:8080/cqf-ruler/baseDstu3/Observation/Observation-333161"
      }
    },
    {
      "fullUrl": "http://localhost:8080/cqf-ruler/baseDstu3/Observation/Observation-333162",
      "resource": {
        "resourceType": "Observation",
        "id": "Observation-333162",
        "status": "final",
        "code": {
          "coding": [
            {
              "system": "http://loinc.org",
              "code": "29463-7",
              "display": "Body Weight"
            }
          ]
        },
        "subject": {
          "reference": "Patient/Patient-6545",
          "display": "Margie Beck Espinoza"
        },
        "context": {
          "reference": "Encounter/Encounter-1457",
          "display": "Wellness Visit"
        },
        "effectivePeriod": {
          "start": "2004-03-05T00:00:00-05:00",
          "end": "2004-03-05T00:00:00-05:00"
        },
        "performer": [
          {
            "reference": "Practitioner/Practitioner-2522",
            "display": "Lois Jean Kent MD"
          }
        ],
        "valueQuantity": {
          "value": 65.9,
          "unit": "kg"
        }
      },
      "request": {
        "method": "PUT",
        "url": "http://localhost:8080/cqf-ruler/baseDstu3/Observation/Observation-333162"
      }
    },
    {
      "fullUrl": "http://localhost:8080/cqf-ruler/baseDstu3/Observation/Observation-333163",
      "resource": {
        "resourceType": "Observation",
        "id": "Observation-333163",
        "status": "final",
        "code": {
          "coding": [
            {
              "system": "http://loinc.org",
              "code": "39156-5",
              "display": "Body Mass Index"
            }
          ]
        },
        "subject": {
          "reference": "Patient/Patient-6545",
          "display": "Margie Beck Espinoza"
        },
        "context": {
          "reference": "Encounter/Encounter-1457",
          "display": "Wellness Visit"
        },
        "effectivePeriod": {
          "start": "2004-03-05T00:00:00-05:00",
          "end": "2004-03-05T00:00:00-05:00"
        },
        "performer": [
          {
            "reference": "Practitioner/Practitioner-2522",
            "display": "Lois Jean Kent MD"
          }
        ],
        "valueQuantity": {
          "value": 22.37952412777588,
          "unit": "kg/m2"
        }
      },
      "request": {
        "method": "PUT",
        "url": "http://localhost:8080/cqf-ruler/baseDstu3/Observation/Observation-333163"
      }
    },
    {
      "fullUrl": "http://localhost:8080/cqf-ruler/baseDstu3/Observation/Observation-333166",
      "resource": {
        "resourceType": "Observation",
        "id": "Observation-333166",
        "status": "final",
        "category": [
          {
            "coding": [
              {
                "system": "http://hl7.org/fhir/observation-category",
                "code": "vital-signs",
                "display": "vital-signs"
              }
            ]
          }
        ],
        "code": {
          "coding": [
            {
              "system": "http://loinc.org",
              "code": "55284-4",
              "display": "Blood Pressure"
            }
          ]
        },
        "subject": {
          "reference": "Patient/Patient-6545",
          "display": "Margie Beck Espinoza"
        },
        "context": {
          "reference": "Encounter/Encounter-1457",
          "display": "Wellness Visit"
        },
        "effectivePeriod": {
          "start": "2004-03-05T00:00:00-05:00",
          "end": "2004-03-05T00:00:00-05:00"
        },
        "valueQuantity": {
          "value": 75.96226404587306,
          "unit": "mmHg"
        },
        "component": [
          {
            "code": {
              "coding": [
                {
                  "system": "http://loinc.org",
                  "code": "8480-6",
                  "display": "Systolic Blood Pressure"
                }
              ]
            }
          },
          {
            "code": {
              "coding": [
                {
                  "system": "http://loinc.org",
                  "code": "8462-4",
                  "display": "Diastolic Blood Pressure"
                }
              ]
            }
          }
        ]
      },
      "request": {
        "method": "PUT",
        "url": "http://localhost:8080/cqf-ruler/baseDstu3/Observation/Observation-333166"
      }
    },
    {
      "fullUrl": "http://localhost:8080/cqf-ruler/baseDstu3/Observation/Observation-333168",
      "resource": {
        "resourceType": "Observation",
        "id": "Observation-333168",
        "status": "final",
        "code": {
          "coding": [
            {
              "system": "http://loinc.org",
              "code": "8302-2",
              "display": "Height"
            }
          ]
        },
        "subject": {
          "reference": "Patient/Patient-6545",
          "display": "Margie Beck Espinoza"
        },
        "context": {
          "reference": "Encounter/Encounter-1457",
          "display": "Wellness Visit"
        },
        "effectiveDateTime": "2004-03-05T00:00:00-05:00",
        "performer": [
          {
            "reference": "Practitioner/Practitioner-2522",
            "display": "Lois Jean Kent MD"
          }
        ],
        "valueQuantity": {
          "value": 171.6,
          "unit": "cm"
        }
      },
      "request": {
        "method": "PUT",
        "url": "http://localhost:8080/cqf-ruler/baseDstu3/Observation/Observation-333168"
      }
    },
    {
      "fullUrl": "http://localhost:8080/cqf-ruler/baseDstu3/Observation/Observation-333169",
      "resource": {
        "resourceType": "Observation",
        "id": "Observation-333169",
        "status": "final",
        "code": {
          "coding": [
            {
              "system": "http://loinc.org",
              "code": "29463-7",
              "display": "Weight"
            }
          ]
        },
        "subject": {
          "reference": "Patient/Patient-6545",
          "display": "Margie Beck Espinoza"
        },
        "context": {
          "reference": "Encounter/Encounter-1457",
          "display": "Wellness Visit"
        },
        "effectiveDateTime": "2004-03-05T00:00:00-05:00",
        "performer": [
          {
            "reference": "Practitioner/Practitioner-2522",
            "display": "Lois Jean Kent MD"
          }
        ],
        "valueQuantity": {
          "value": 65.9,
          "unit": "kg"
        }
      },
      "request": {
        "method": "PUT",
        "url": "http://localhost:8080/cqf-ruler/baseDstu3/Observation/Observation-333169"
      }
    },
    {
      "fullUrl": "http://localhost:8080/cqf-ruler/baseDstu3/Observation/Observation-333170",
      "resource": {
        "resourceType": "Observation",
        "id": "Observation-333170",
        "status": "final",
        "code": {
          "coding": [
            {
              "system": "http://loinc.org",
              "code": "39156-5",
              "display": "BMI"
            }
          ]
        },
        "subject": {
          "reference": "Patient/Patient-6545",
          "display": "Margie Beck Espinoza"
        },
        "context": {
          "reference": "Encounter/Encounter-1457",
          "display": "Wellness Visit"
        },
        "effectiveDateTime": "2004-03-05T00:00:00-05:00",
        "performer": [
          {
            "reference": "Practitioner/Practitioner-2522",
            "display": "Lois Jean Kent MD"
          }
        ],
        "valueQuantity": {
          "value": 22.37952412777588,
          "unit": "kg/m2"
        }
      },
      "request": {
        "method": "PUT",
        "url": "http://localhost:8080/cqf-ruler/baseDstu3/Observation/Observation-333170"
      }
    },
    {
      "fullUrl": "http://localhost:8080/cqf-ruler/baseDstu3/Observation/Observation-333171",
      "resource": {
        "resourceType": "Observation",
        "id": "Observation-333171",
        "status": "final",
        "code": {
          "coding": [
            {
              "system": "http://loinc.org",
              "code": "8310-5",
              "display": "Temperature"
            }
          ]
        },
        "subject": {
          "reference": "Patient/Patient-6545",
          "display": "Margie Beck Espinoza"
        },
        "context": {
          "reference": "Encounter/Encounter-1457",
          "display": "Wellness Visit"
        },
        "effectiveDateTime": "2004-03-05T00:00:00-05:00",
        "performer": [
          {
            "reference": "Practitioner/Practitioner-2522",
            "display": "Lois Jean Kent MD"
          }
        ],
        "valueQuantity": {
          "value": 37.0,
          "unit": "C"
        }
      },
      "request": {
        "method": "PUT",
        "url": "http://localhost:8080/cqf-ruler/baseDstu3/Observation/Observation-333171"
      }
    },
    {
      "fullUrl": "http://localhost:8080/cqf-ruler/baseDstu3/Observation/Observation-333172",
      "resource": {
        "resourceType": "Observation",
        "id": "Observation-333172",
        "status": "final",
        "code": {
          "coding": [
            {
              "system": "http://loinc.org",
              "code": "8459-0",
              "display": "Systolic Blood Pressure"
            }
          ]
        },
        "subject": {
          "reference": "Patient/Patient-6545",
          "display": "Margie Beck Espinoza"
        },
        "context": {
          "reference": "Encounter/Encounter-1457",
          "display": "Wellness Visit"
        },
        "effectiveDateTime": "2004-03-05T00:00:00-05:00",
        "performer": [
          {
            "reference": "Practitioner/Practitioner-2522",
            "display": "Lois Jean Kent MD"
          }
        ],
        "valueQuantity": {
          "value": 147.6655627340665,
          "unit": "mmHg"
        }
      },
      "request": {
        "method": "PUT",
        "url": "http://localhost:8080/cqf-ruler/baseDstu3/Observation/Observation-333172"
      }
    },
    {
      "fullUrl": "http://localhost:8080/cqf-ruler/baseDstu3/Observation/Observation-333173",
      "resource": {
        "resourceType": "Observation",
        "id": "Observation-333173",
        "status": "final",
        "code": {
          "coding": [
            {
              "system": "http://loinc.org",
              "code": "8453-3",
              "display": "Diastolic Blood Pressure"
            }
          ]
        },
        "subject": {
          "reference": "Patient/Patient-6545",
          "display": "Margie Beck Espinoza"
        },
        "context": {
          "reference": "Encounter/Encounter-1457",
          "display": "Wellness Visit"
        },
        "effectiveDateTime": "2004-03-05T00:00:00-05:00",
        "performer": [
          {
            "reference": "Practitioner/Practitioner-2522",
            "display": "Lois Jean Kent MD"
          }
        ],
        "valueQuantity": {
          "value": 75.96226404587306,
          "unit": "mmHg"
        }
      },
      "request": {
        "method": "PUT",
        "url": "http://localhost:8080/cqf-ruler/baseDstu3/Observation/Observation-333173"
      }
    },
    {
      "fullUrl": "http://localhost:8080/cqf-ruler/baseDstu3/DiagnosticReport/DiagnosticReport-333167",
      "resource": {
        "resourceType": "DiagnosticReport",
        "id": "DiagnosticReport-333167",
        "status": "final",
        "code": {
          "coding": [
            {
              "system": "http://loinc.org",
              "code": "8716-3",
              "display": "Vital Signs Panel"
            }
          ]
        },
        "subject": {
          "reference": "Patient/Patient-6545",
          "display": "Margie Beck Espinoza"
        },
        "context": {
          "reference": "Encounter/Encounter-1457",
          "display": "Wellness Visit"
        },
        "effectivePeriod": {
          "start": "2004-03-05T00:00:00-05:00",
          "end": "2004-03-05T00:00:00-05:00"
        },
        "issued": "2004-03-05T00:00:00.000-05:00",
        "result": [
          {
            "reference": "Observation/Observation-333168",
            "display": "Height"
          },
          {
            "reference": "Observation/Observation-333169",
            "display": "Weight"
          },
          {
            "reference": "Observation/Observation-333170",
            "display": "BMI"
          },
          {
            "reference": "Observation/Observation-333171",
            "display": "Temperature"
          },
          {
            "reference": "Observation/Observation-333172",
            "display": "Systolic Blood Pressure"
          },
          {
            "reference": "Observation/Observation-333173",
            "display": "Diastolic Blood Pressure"
          }
        ]
      },
      "request": {
        "method": "PUT",
        "url": "http://localhost:8080/cqf-ruler/baseDstu3/DiagnosticReport/DiagnosticReport-333167"
      }
    }
  ]
}