{
  "resourceType": "Bundle",
  "id": "Margie Beck Espinoza-6545-Encounter-1072",
  "type": "transaction",
  "entry": [
    {
      "fullUrl": "http://localhost:8080/cqf-ruler/baseDstu3/Encounter/Encounter-1072",
      "resource": {
        "resourceType": "Encounter",
        "id": "Encounter-1072",
        "status": "finished",
        "class": {
          "system": "http://hl7.org/fhir/encounter-class",
          "code": "outpatient",
          "display": "Inpatient"
        },
        "subject": {
          "reference": "Patient/Patient-6545",
          "display": "Margie Beck Espinoza"
        },
        "participant": [
          {
            "period": {
              "start": "1999-03-24T00:00:00-05:00",
              "end": "1999-03-24T00:00:00-05:00"
            },
            "individual": {
              "reference": "Practitioner/Practitioner-2522",
              "display": "Lois Jean Kent MD"
            }
          }
        ],
        "period": {
          "start": "1999-03-24T00:00:00-05:00",
          "end": "1999-03-24T00:00:00-05:00"
        },
        "location": [
          {
            "location": {
              "reference": "Location/Location-1101",
              "display": "McKinley Health Center"
            }
          }
        ],
        "serviceProvider": {
          "reference": "Organization/Organization-1101",
          "display": "McKinley Health Center"
        }
      },
      "request": {
        "method": "PUT",
        "url": "http://localhost:8080/cqf-ruler/baseDstu3/Encounter/Encounter-1072"
      }
    },
    {
      "fullUrl": "http://localhost:8080/cqf-ruler/baseDstu3/Immunization/Immunization-196565",
      "resource": {
        "resourceType": "Immunization",
        "id": "Immunization-196565",
        "status": "completed",
        "notGiven": false,
        "vaccineCode": {
          "coding": [
            {
              "system": "http://hl7.org/fhir/sid/cvx",
              "code": "140",
              "display": "Influenza, seasonal, injectable, preservative free"
            }
          ]
        },
        "patient": {
          "reference": "Patient/Patient-6545",
          "display": "Margie Beck Espinoza"
        },
        "date": "1999-03-24T00:00:00-05:00",
        "primarySource": true,
        "location": {
          "reference": "Location/Location-1101",
          "display": "McKinley Health Center"
        },
        "practitioner": [
          {
            "actor": {
              "reference": "Practitioner/Practitioner-2522",
              "display": "Lois Jean Kent MD"
            }
          }
        ]
      },
      "request": {
        "method": "PUT",
        "url": "http://localhost:8080/cqf-ruler/baseDstu3/Immunization/Immunization-196565"
      }
    },
    {
      "fullUrl": "http://localhost:8080/cqf-ruler/baseDstu3/Immunization/Immunization-196566",
      "resource": {
        "resourceType": "Immunization",
        "id": "Immunization-196566",
        "status": "completed",
        "notGiven": false,
        "vaccineCode": {
          "coding": [
            {
              "system": "http://hl7.org/fhir/sid/cvx",
              "code": "114",
              "display": "meningococcal MCV4P"
            }
          ]
        },
        "patient": {
          "reference": "Patient/Patient-6545",
          "display": "Margie Beck Espinoza"
        },
        "date": "1999-03-24T00:00:00-05:00",
        "primarySource": true,
        "location": {
          "reference": "Location/Location-1101",
          "display": "McKinley Health Center"
        },
        "practitioner": [
          {
            "actor": {
              "reference": "Practitioner/Practitioner-2522",
              "display": "Lois Jean Kent MD"
            }
          }
        ]
      },
      "request": {
        "method": "PUT",
        "url": "http://localhost:8080/cqf-ruler/baseDstu3/Immunization/Immunization-196566"
      }
    },
    {
      "fullUrl": "http://localhost:8080/cqf-ruler/baseDstu3/Observation/Observation-216779",
      "resource": {
        "resourceType": "Observation",
        "id": "Observation-216779",
        "status": "final",
        "code": {
          "coding": [
            {
              "system": "http://loinc.org",
              "code": "8302-2",
              "display": "Height"
            }
          ]
        },
        "subject": {
          "reference": "Patient/Patient-6545",
          "display": "Margie Beck Espinoza"
        },
        "context": {
          "reference": "Encounter/Encounter-1072",
          "display": "McKinley Health Center"
        },
        "effectiveDateTime": "1999-03-24T00:00:00-05:00",
        "performer": [
          {
            "reference": "Practitioner/Practitioner-2522",
            "display": "Lois Jean Kent MD"
          }
        ],
        "valueQuantity": {
          "value": 162.5,
          "unit": "cm"
        }
      },
      "request": {
        "method": "PUT",
        "url": "http://localhost:8080/cqf-ruler/baseDstu3/Observation/Observation-216779"
      }
    },
    {
      "fullUrl": "http://localhost:8080/cqf-ruler/baseDstu3/Observation/Observation-216780",
      "resource": {
        "resourceType": "Observation",
        "id": "Observation-216780",
        "status": "final",
        "code": {
          "coding": [
            {
              "system": "http://loinc.org",
              "code": "29463-7",
              "display": "Weight"
            }
          ]
        },
        "subject": {
          "reference": "Patient/Patient-6545",
          "display": "Margie Beck Espinoza"
        },
        "context": {
          "reference": "Encounter/Encounter-1072",
          "display": "McKinley Health Center"
        },
        "effectiveDateTime": "1999-03-24T00:00:00-05:00",
        "performer": [
          {
            "reference": "Practitioner/Practitioner-2522",
            "display": "Lois Jean Kent MD"
          }
        ],
        "valueQuantity": {
          "value": 53.7,
          "unit": "kg"
        }
      },
      "request": {
        "method": "PUT",
        "url": "http://localhost:8080/cqf-ruler/baseDstu3/Observation/Observation-216780"
      }
    },
    {
      "fullUrl": "http://localhost:8080/cqf-ruler/baseDstu3/Observation/Observation-216781",
      "resource": {
        "resourceType": "Observation",
        "id": "Observation-216781",
        "status": "final",
        "code": {
          "coding": [
            {
              "system": "http://loinc.org",
              "code": "39156-5",
              "display": "BMI"
            }
          ]
        },
        "subject": {
          "reference": "Patient/Patient-6545",
          "display": "Margie Beck Espinoza"
        },
        "context": {
          "reference": "Encounter/Encounter-1072",
          "display": "McKinley Health Center"
        },
        "effectiveDateTime": "1999-03-24T00:00:00-05:00",
        "performer": [
          {
            "reference": "Practitioner/Practitioner-2522",
            "display": "Lois Jean Kent MD"
          }
        ],
        "valueQuantity": {
          "value": 20.336094674556215,
          "unit": "kg/m2"
        }
      },
      "request": {
        "method": "PUT",
        "url": "http://localhost:8080/cqf-ruler/baseDstu3/Observation/Observation-216781"
      }
    },
    {
      "fullUrl": "http://localhost:8080/cqf-ruler/baseDstu3/Observation/Observation-216782",
      "resource": {
        "resourceType": "Observation",
        "id": "Observation-216782",
        "status": "final",
        "code": {
          "coding": [
            {
              "system": "http://loinc.org",
              "code": "8310-5",
              "display": "Temperature"
            }
          ]
        },
        "subject": {
          "reference": "Patient/Patient-6545",
          "display": "Margie Beck Espinoza"
        },
        "context": {
          "reference": "Encounter/Encounter-1072",
          "display": "McKinley Health Center"
        },
        "effectiveDateTime": "1999-03-24T00:00:00-05:00",
        "performer": [
          {
            "reference": "Practitioner/Practitioner-2522",
            "display": "Lois Jean Kent MD"
          }
        ],
        "valueQuantity": {
          "value": 37.0,
          "unit": "C"
        }
      },
      "request": {
        "method": "PUT",
        "url": "http://localhost:8080/cqf-ruler/baseDstu3/Observation/Observation-216782"
      }
    },
    {
      "fullUrl": "http://localhost:8080/cqf-ruler/baseDstu3/Observation/Observation-216783",
      "resource": {
        "resourceType": "Observation",
        "id": "Observation-216783",
        "status": "final",
        "code": {
          "coding": [
            {
              "system": "http://loinc.org",
              "code": "8459-0",
              "display": "Systolic Blood Pressure"
            }
          ]
        },
        "subject": {
          "reference": "Patient/Patient-6545",
          "display": "Margie Beck Espinoza"
        },
        "context": {
          "reference": "Encounter/Encounter-1072",
          "display": "McKinley Health Center"
        },
        "effectiveDateTime": "1999-03-24T00:00:00-05:00",
        "performer": [
          {
            "reference": "Practitioner/Practitioner-2522",
            "display": "Lois Jean Kent MD"
          }
        ],
        "valueQuantity": {
          "value": 130.91744239800926,
          "unit": "mmHg"
        }
      },
      "request": {
        "method": "PUT",
        "url": "http://localhost:8080/cqf-ruler/baseDstu3/Observation/Observation-216783"
      }
    },
    {
      "fullUrl": "http://localhost:8080/cqf-ruler/baseDstu3/Observation/Observation-216784",
      "resource": {
        "resourceType": "Observation",
        "id": "Observation-216784",
        "status": "final",
        "code": {
          "coding": [
            {
              "system": "http://loinc.org",
              "code": "8453-3",
              "display": "Diastolic Blood Pressure"
            }
          ]
        },
        "subject": {
          "reference": "Patient/Patient-6545",
          "display": "Margie Beck Espinoza"
        },
        "context": {
          "reference": "Encounter/Encounter-1072",
          "display": "McKinley Health Center"
        },
        "effectiveDateTime": "1999-03-24T00:00:00-05:00",
        "performer": [
          {
            "reference": "Practitioner/Practitioner-2522",
            "display": "Lois Jean Kent MD"
          }
        ],
        "valueQuantity": {
          "value": 84.36433435083867,
          "unit": "mmHg"
        }
      },
      "request": {
        "method": "PUT",
        "url": "http://localhost:8080/cqf-ruler/baseDstu3/Observation/Observation-216784"
      }
    },
    {
      "fullUrl": "http://localhost:8080/cqf-ruler/baseDstu3/DiagnosticReport/DiagnosticReport-216778",
      "resource": {
        "resourceType": "DiagnosticReport",
        "id": "DiagnosticReport-216778",
        "status": "final",
        "code": {
          "coding": [
            {
              "system": "http://loinc.org",
              "code": "8716-3",
              "display": "Vital Signs Panel"
            }
          ]
        },
        "subject": {
          "reference": "Patient/Patient-6545",
          "display": "Margie Beck Espinoza"
        },
        "context": {
          "reference": "Encounter/Encounter-1072",
          "display": "McKinley Health Center"
        },
        "effectivePeriod": {
          "start": "1999-03-24T00:00:00-05:00",
          "end": "1999-03-24T00:00:00-05:00"
        },
        "issued": "1999-03-24T00:00:00.000-05:00",
        "result": [
          {
            "reference": "Observation/Observation-216779",
            "display": "Height"
          },
          {
            "reference": "Observation/Observation-216780",
            "display": "Weight"
          },
          {
            "reference": "Observation/Observation-216781",
            "display": "BMI"
          },
          {
            "reference": "Observation/Observation-216782",
            "display": "Temperature"
          },
          {
            "reference": "Observation/Observation-216783",
            "display": "Systolic Blood Pressure"
          },
          {
            "reference": "Observation/Observation-216784",
            "display": "Diastolic Blood Pressure"
          }
        ]
      },
      "request": {
        "method": "PUT",
        "url": "http://localhost:8080/cqf-ruler/baseDstu3/DiagnosticReport/DiagnosticReport-216778"
      }
    }
  ]
}