{
  "resourceType": "Bundle",
  "id": "Margie Beck Espinoza-6545-Encounter-627",
  "type": "transaction",
  "entry": [
    {
      "fullUrl": "http://localhost:8080/cqf-ruler/baseDstu3/Encounter/Encounter-627",
      "resource": {
        "resourceType": "Encounter",
        "id": "Encounter-627",
        "status": "finished",
        "class": {
          "system": "http://hl7.org/fhir/encounter-class",
          "code": "outpatient",
          "display": "Inpatient"
        },
        "subject": {
          "reference": "Patient/Patient-6545",
          "display": "Margie Beck Espinoza"
        },
        "participant": [
          {
            "period": {
              "start": "1993-03-25T00:00:00-05:00",
              "end": "1993-03-25T00:00:00-05:00"
            },
            "individual": {
              "reference": "Practitioner/Practitioner-2522",
              "display": "Lois Jean Kent MD"
            }
          }
        ],
        "period": {
          "start": "1993-03-25T00:00:00-05:00",
          "end": "1993-03-25T00:00:00-05:00"
        },
        "location": [
          {
            "location": {
              "reference": "Location/Location-1101",
              "display": "McKinley Health Center"
            }
          }
        ],
        "serviceProvider": {
          "reference": "Organization/Organization-1101",
          "display": "McKinley Health Center"
        }
      },
      "request": {
        "method": "PUT",
        "url": "http://localhost:8080/cqf-ruler/baseDstu3/Encounter/Encounter-627"
      }
    },
    {
      "fullUrl": "http://localhost:8080/cqf-ruler/baseDstu3/Immunization/Immunization-78313",
      "resource": {
        "resourceType": "Immunization",
        "id": "Immunization-78313",
        "status": "completed",
        "notGiven": false,
        "vaccineCode": {
          "coding": [
            {
              "system": "http://hl7.org/fhir/sid/cvx",
              "code": "140",
              "display": "Influenza, seasonal, injectable, preservative free"
            }
          ]
        },
        "patient": {
          "reference": "Patient/Patient-6545",
          "display": "Margie Beck Espinoza"
        },
        "date": "1993-03-25T00:00:00-05:00",
        "primarySource": true,
        "location": {
          "reference": "Location/Location-1101",
          "display": "McKinley Health Center"
        },
        "practitioner": [
          {
            "actor": {
              "reference": "Practitioner/Practitioner-2522",
              "display": "Lois Jean Kent MD"
            }
          }
        ]
      },
      "request": {
        "method": "PUT",
        "url": "http://localhost:8080/cqf-ruler/baseDstu3/Immunization/Immunization-78313"
      }
    },
    {
      "fullUrl": "http://localhost:8080/cqf-ruler/baseDstu3/Observation/Observation-97981",
      "resource": {
        "resourceType": "Observation",
        "id": "Observation-97981",
        "status": "final",
        "code": {
          "coding": [
            {
              "system": "http://loinc.org",
              "code": "8302-2",
              "display": "Height"
            }
          ]
        },
        "subject": {
          "reference": "Patient/Patient-6545",
          "display": "Margie Beck Espinoza"
        },
        "context": {
          "reference": "Encounter/Encounter-627",
          "display": "McKinley Health Center"
        },
        "effectiveDateTime": "1993-03-25T00:00:00-05:00",
        "performer": [
          {
            "reference": "Practitioner/Practitioner-2522",
            "display": "Lois Jean Kent MD"
          }
        ],
        "valueQuantity": {
          "value": 137.3,
          "unit": "cm"
        }
      },
      "request": {
        "method": "PUT",
        "url": "http://localhost:8080/cqf-ruler/baseDstu3/Observation/Observation-97981"
      }
    },
    {
      "fullUrl": "http://localhost:8080/cqf-ruler/baseDstu3/Observation/Observation-97982",
      "resource": {
        "resourceType": "Observation",
        "id": "Observation-97982",
        "status": "final",
        "code": {
          "coding": [
            {
              "system": "http://loinc.org",
              "code": "29463-7",
              "display": "Weight"
            }
          ]
        },
        "subject": {
          "reference": "Patient/Patient-6545",
          "display": "Margie Beck Espinoza"
        },
        "context": {
          "reference": "Encounter/Encounter-627",
          "display": "McKinley Health Center"
        },
        "effectiveDateTime": "1993-03-25T00:00:00-05:00",
        "performer": [
          {
            "reference": "Practitioner/Practitioner-2522",
            "display": "Lois Jean Kent MD"
          }
        ],
        "valueQuantity": {
          "value": 32.4,
          "unit": "kg"
        }
      },
      "request": {
        "method": "PUT",
        "url": "http://localhost:8080/cqf-ruler/baseDstu3/Observation/Observation-97982"
      }
    },
    {
      "fullUrl": "http://localhost:8080/cqf-ruler/baseDstu3/Observation/Observation-97983",
      "resource": {
        "resourceType": "Observation",
        "id": "Observation-97983",
        "status": "final",
        "code": {
          "coding": [
            {
              "system": "http://loinc.org",
              "code": "39156-5",
              "display": "BMI"
            }
          ]
        },
        "subject": {
          "reference": "Patient/Patient-6545",
          "display": "Margie Beck Espinoza"
        },
        "context": {
          "reference": "Encounter/Encounter-627",
          "display": "McKinley Health Center"
        },
        "effectiveDateTime": "1993-03-25T00:00:00-05:00",
        "performer": [
          {
            "reference": "Practitioner/Practitioner-2522",
            "display": "Lois Jean Kent MD"
          }
        ],
        "valueQuantity": {
          "value": 17.18715270944322,
          "unit": "kg/m2"
        }
      },
      "request": {
        "method": "PUT",
        "url": "http://localhost:8080/cqf-ruler/baseDstu3/Observation/Observation-97983"
      }
    },
    {
      "fullUrl": "http://localhost:8080/cqf-ruler/baseDstu3/Observation/Observation-97984",
      "resource": {
        "resourceType": "Observation",
        "id": "Observation-97984",
        "status": "final",
        "code": {
          "coding": [
            {
              "system": "http://loinc.org",
              "code": "8310-5",
              "display": "Temperature"
            }
          ]
        },
        "subject": {
          "reference": "Patient/Patient-6545",
          "display": "Margie Beck Espinoza"
        },
        "context": {
          "reference": "Encounter/Encounter-627",
          "display": "McKinley Health Center"
        },
        "effectiveDateTime": "1993-03-25T00:00:00-05:00",
        "performer": [
          {
            "reference": "Practitioner/Practitioner-2522",
            "display": "Lois Jean Kent MD"
          }
        ],
        "valueQuantity": {
          "value": 37.0,
          "unit": "C"
        }
      },
      "request": {
        "method": "PUT",
        "url": "http://localhost:8080/cqf-ruler/baseDstu3/Observation/Observation-97984"
      }
    },
    {
      "fullUrl": "http://localhost:8080/cqf-ruler/baseDstu3/Observation/Observation-97985",
      "resource": {
        "resourceType": "Observation",
        "id": "Observation-97985",
        "status": "final",
        "code": {
          "coding": [
            {
              "system": "http://loinc.org",
              "code": "8459-0",
              "display": "Systolic Blood Pressure"
            }
          ]
        },
        "subject": {
          "reference": "Patient/Patient-6545",
          "display": "Margie Beck Espinoza"
        },
        "context": {
          "reference": "Encounter/Encounter-627",
          "display": "McKinley Health Center"
        },
        "effectiveDateTime": "1993-03-25T00:00:00-05:00",
        "performer": [
          {
            "reference": "Practitioner/Practitioner-2522",
            "display": "Lois Jean Kent MD"
          }
        ],
        "valueQuantity": {
          "value": 131.27066474770038,
          "unit": "mmHg"
        }
      },
      "request": {
        "method": "PUT",
        "url": "http://localhost:8080/cqf-ruler/baseDstu3/Observation/Observation-97985"
      }
    },
    {
      "fullUrl": "http://localhost:8080/cqf-ruler/baseDstu3/Observation/Observation-97986",
      "resource": {
        "resourceType": "Observation",
        "id": "Observation-97986",
        "status": "final",
        "code": {
          "coding": [
            {
              "system": "http://loinc.org",
              "code": "8453-3",
              "display": "Diastolic Blood Pressure"
            }
          ]
        },
        "subject": {
          "reference": "Patient/Patient-6545",
          "display": "Margie Beck Espinoza"
        },
        "context": {
          "reference": "Encounter/Encounter-627",
          "display": "McKinley Health Center"
        },
        "effectiveDateTime": "1993-03-25T00:00:00-05:00",
        "performer": [
          {
            "reference": "Practitioner/Practitioner-2522",
            "display": "Lois Jean Kent MD"
          }
        ],
        "valueQuantity": {
          "value": 84.38123580252801,
          "unit": "mmHg"
        }
      },
      "request": {
        "method": "PUT",
        "url": "http://localhost:8080/cqf-ruler/baseDstu3/Observation/Observation-97986"
      }
    },
    {
      "fullUrl": "http://localhost:8080/cqf-ruler/baseDstu3/DiagnosticReport/DiagnosticReport-97980",
      "resource": {
        "resourceType": "DiagnosticReport",
        "id": "DiagnosticReport-97980",
        "status": "final",
        "code": {
          "coding": [
            {
              "system": "http://loinc.org",
              "code": "8716-3",
              "display": "Vital Signs Panel"
            }
          ]
        },
        "subject": {
          "reference": "Patient/Patient-6545",
          "display": "Margie Beck Espinoza"
        },
        "context": {
          "reference": "Encounter/Encounter-627",
          "display": "McKinley Health Center"
        },
        "effectivePeriod": {
          "start": "1993-03-25T00:00:00-05:00",
          "end": "1993-03-25T00:00:00-05:00"
        },
        "issued": "1993-03-25T00:00:00.000-05:00",
        "result": [
          {
            "reference": "Observation/Observation-97981",
            "display": "Height"
          },
          {
            "reference": "Observation/Observation-97982",
            "display": "Weight"
          },
          {
            "reference": "Observation/Observation-97983",
            "display": "BMI"
          },
          {
            "reference": "Observation/Observation-97984",
            "display": "Temperature"
          },
          {
            "reference": "Observation/Observation-97985",
            "display": "Systolic Blood Pressure"
          },
          {
            "reference": "Observation/Observation-97986",
            "display": "Diastolic Blood Pressure"
          }
        ]
      },
      "request": {
        "method": "PUT",
        "url": "http://localhost:8080/cqf-ruler/baseDstu3/DiagnosticReport/DiagnosticReport-97980"
      }
    }
  ]
}