{
  "resourceType": "Bundle",
  "id": "Juanita-Brittany-Fuller-6555-Encounter-4402",
  "type": "transaction",
  "entry": [
    {
      "fullUrl": "http://localhost:8080/cqf-ruler/baseDstu3/Encounter/Encounter-4402",
      "resource": {
        "resourceType": "Encounter",
        "id": "Encounter-4402",
        "meta": {
          "profile": [
            "http://hl7.org/fhir/us/hedis/StructureDefinition/hedis-encounter"
          ]
        },
        "status": "finished",
        "class": {
          "system": "http://hl7.org/fhir/encounter-class",
          "code": "outpatient",
          "display": "Outpatient"
        },
        "type": [
          {
            "coding": [
              {
                "system": "http://www.ama-assn.org/go/cpt",
                "code": "99220",
                "display": "INITIAL OBSERVATION CARE"
              }
            ]
          }
        ],
        "subject": {
          "reference": "Patient/Patient-6555",
          "display": "Juanita Brittany Fuller"
        },
        "participant": [
          {
            "period": {
              "start": "2017-10-13T01:00:00-04:00",
              "end": "2017-10-13T01:00:00-04:00"
            },
            "individual": {
              "reference": "Practitioner/Practitioner-2532",
              "display": "Chad Espinoza Potter MD"
            }
          }
        ],
        "period": {
          "start": "2017-10-13T01:00:00-04:00",
          "end": "2017-10-13T01:00:00-04:00"
        },
        "reason": [
          {
            "coding": [
              {
                "system": "http://snomed.info/sct",
                "code": "310496002",
                "display": "Moderate depression (disorder)"
              }
            ]
          }
        ],
        "location": [
          {
            "location": {
              "reference": "Location/Location-1105",
              "display": "Bayside Medical Group"
            }
          }
        ],
        "serviceProvider": {
          "reference": "Organization/Organization-1105",
          "display": "Bayside Medical Group"
        }
      },
      "request": {
        "method": "PUT",
        "url": "http://localhost:8080/cqf-ruler/baseDstu3/Encounter/Encounter-4402"
      }
    },
    {
      "fullUrl": "http://localhost:8080/cqf-ruler/baseDstu3/Procedure/Procedure-693931",
      "resource": {
        "resourceType": "Procedure",
        "id": "Procedure-693931",
        "meta": {
          "profile": [
            "http://hl7.org/fhir/us/hedis/StructureDefinition/hedis-procedure"
          ]
        },
        "status": "completed",
        "code": {
          "coding": [
            {
              "system": "http://test",
              "code": "2.16.840.1.113883.3.67.1.101.11.723",
              "display": "2.16.840.1.113883.3.67.1.101.11.723"
            }
          ]
        },
        "subject": {
          "reference": "Patient/Patient-6555",
          "display": "Juanita Brittany Fuller"
        },
        "context": {
          "reference": "Encounter/Encounter-4402",
          "display": "DRR_Encounter"
        },
        "performedPeriod": {
          "start": "2017-10-13T01:00:00-04:00",
          "end": "2017-10-13T01:00:00-04:00"
        },
        "performer": [
          {
            "actor": {
              "reference": "Practitioner/Practitioner-2532",
              "display": "Chad Espinoza Potter MD"
            }
          }
        ],
        "location": {
          "reference": "Location/Location-1105",
          "display": "Bayside Medical Group"
        }
      },
      "request": {
        "method": "PUT",
        "url": "http://localhost:8080/cqf-ruler/baseDstu3/Procedure/Procedure-693931"
      }
    },
    {
      "fullUrl": "http://localhost:8080/cqf-ruler/baseDstu3/Observation/Observation-693932",
      "resource": {
        "resourceType": "Observation",
        "id": "Observation-693932",
        "meta": {
          "profile": [
            "http://hl7.org/fhir/us/hedis/StructureDefinition/hedis-observation"
          ]
        },
        "status": "final",
        "code": {
          "coding": [
            {
              "system": "http://cqframework.info/codesystem/placeholder",
              "code": "00009",
              "display": "PHQ-9 Modified Score"
            }
          ]
        },
        "subject": {
          "reference": "Patient/Patient-6555",
          "display": "Juanita Brittany Fuller"
        },
        "context": {
          "reference": "Encounter/Encounter-4402",
          "display": "DRR_Encounter"
        },
        "effectiveDateTime": "2017-10-13T01:00:00-04:00",
        "performer": [
          {
            "reference": "Practitioner/Practitioner-2532",
            "display": "Chad Espinoza Potter MD"
          }
        ],
        "valueQuantity": {
          "value": 0.0,
          "unit": "score"
        }
      },
      "request": {
        "method": "PUT",
        "url": "http://localhost:8080/cqf-ruler/baseDstu3/Observation/Observation-693932"
      }
    },
    {
      "fullUrl": "http://localhost:8080/cqf-ruler/baseDstu3/DiagnosticReport/DiagnosticReport-693933",
      "resource": {
        "resourceType": "DiagnosticReport",
        "id": "DiagnosticReport-693933",
        "meta": {
          "profile": [
            "http://hl7.org/fhir/us/hedis/StructureDefinition/hedis-diagnosticreport"
          ]
        },
        "status": "final",
        "category": {
          "coding": [
            {
              "system": "http://hl7.org/fhir/ValueSet/diagnostic-service-sections",
              "code": "OTH",
              "display": "Other"
            }
          ]
        },
        "code": {
          "coding": [
            {
              "system": "http://snomed.info/sct",
              "code": "75084000",
              "display": "Severe major depression without psychotic features (disorder)"
            }
          ]
        },
        "subject": {
          "reference": "Patient/Patient-6555",
          "display": "Juanita Brittany Fuller"
        },
        "context": {
          "reference": "Encounter/Encounter-4402",
          "display": "DRR_Encounter"
        },
        "effectivePeriod": {
          "start": "2017-10-13T01:00:00-04:00",
          "end": "2017-10-13T01:00:00-04:00"
        },
        "issued": "2017-10-13T01:00:00.000-04:00"
      },
      "request": {
        "method": "PUT",
        "url": "http://localhost:8080/cqf-ruler/baseDstu3/DiagnosticReport/DiagnosticReport-693933"
      }
    },
    {
      "fullUrl": "http://localhost:8080/cqf-ruler/baseDstu3/Observation/Observation-693936",
      "resource": {
        "resourceType": "Observation",
        "id": "Observation-693936",
        "status": "final",
        "code": {
          "coding": [
            {
              "system": "http://loinc.org",
              "code": "8302-2",
              "display": "Height"
            }
          ]
        },
        "subject": {
          "reference": "Patient/Patient-6555",
          "display": "Juanita Brittany Fuller"
        },
        "context": {
          "reference": "Encounter/Encounter-4402",
          "display": "DRR_Encounter"
        },
        "effectiveDateTime": "2017-10-13T01:00:00-04:00",
        "performer": [
          {
            "reference": "Practitioner/Practitioner-2532",
            "display": "Chad Espinoza Potter MD"
          }
        ],
        "valueQuantity": {
          "value": 86.2,
          "unit": "cm"
        }
      },
      "request": {
        "method": "PUT",
        "url": "http://localhost:8080/cqf-ruler/baseDstu3/Observation/Observation-693936"
      }
    },
    {
      "fullUrl": "http://localhost:8080/cqf-ruler/baseDstu3/Observation/Observation-693937",
      "resource": {
        "resourceType": "Observation",
        "id": "Observation-693937",
        "status": "final",
        "code": {
          "coding": [
            {
              "system": "http://loinc.org",
              "code": "29463-7",
              "display": "Weight"
            }
          ]
        },
        "subject": {
          "reference": "Patient/Patient-6555",
          "display": "Juanita Brittany Fuller"
        },
        "context": {
          "reference": "Encounter/Encounter-4402",
          "display": "DRR_Encounter"
        },
        "effectiveDateTime": "2017-10-13T01:00:00-04:00",
        "performer": [
          {
            "reference": "Practitioner/Practitioner-2532",
            "display": "Chad Espinoza Potter MD"
          }
        ],
        "valueQuantity": {
          "value": 16.8,
          "unit": "kg"
        }
      },
      "request": {
        "method": "PUT",
        "url": "http://localhost:8080/cqf-ruler/baseDstu3/Observation/Observation-693937"
      }
    },
    {
      "fullUrl": "http://localhost:8080/cqf-ruler/baseDstu3/Observation/Observation-693938",
      "resource": {
        "resourceType": "Observation",
        "id": "Observation-693938",
        "status": "final",
        "code": {
          "coding": [
            {
              "system": "http://loinc.org",
              "code": "39156-5",
              "display": "BMI"
            }
          ]
        },
        "subject": {
          "reference": "Patient/Patient-6555",
          "display": "Juanita Brittany Fuller"
        },
        "context": {
          "reference": "Encounter/Encounter-4402",
          "display": "DRR_Encounter"
        },
        "effectiveDateTime": "2017-10-13T01:00:00-04:00",
        "performer": [
          {
            "reference": "Practitioner/Practitioner-2532",
            "display": "Chad Espinoza Potter MD"
          }
        ],
        "valueQuantity": {
          "value": 22.60969740688304,
          "unit": "kg/m2"
        }
      },
      "request": {
        "method": "PUT",
        "url": "http://localhost:8080/cqf-ruler/baseDstu3/Observation/Observation-693938"
      }
    },
    {
      "fullUrl": "http://localhost:8080/cqf-ruler/baseDstu3/Observation/Observation-693939",
      "resource": {
        "resourceType": "Observation",
        "id": "Observation-693939",
        "status": "final",
        "code": {
          "coding": [
            {
              "system": "http://loinc.org",
              "code": "8310-5",
              "display": "Temperature"
            }
          ]
        },
        "subject": {
          "reference": "Patient/Patient-6555",
          "display": "Juanita Brittany Fuller"
        },
        "context": {
          "reference": "Encounter/Encounter-4402",
          "display": "DRR_Encounter"
        },
        "effectiveDateTime": "2017-10-13T01:00:00-04:00",
        "performer": [
          {
            "reference": "Practitioner/Practitioner-2532",
            "display": "Chad Espinoza Potter MD"
          }
        ],
        "valueQuantity": {
          "value": 37.0,
          "unit": "C"
        }
      },
      "request": {
        "method": "PUT",
        "url": "http://localhost:8080/cqf-ruler/baseDstu3/Observation/Observation-693939"
      }
    },
    {
      "fullUrl": "http://localhost:8080/cqf-ruler/baseDstu3/Observation/Observation-693940",
      "resource": {
        "resourceType": "Observation",
        "id": "Observation-693940",
        "status": "final",
        "code": {
          "coding": [
            {
              "system": "http://loinc.org",
              "code": "8459-0",
              "display": "Systolic Blood Pressure"
            }
          ]
        },
        "subject": {
          "reference": "Patient/Patient-6555",
          "display": "Juanita Brittany Fuller"
        },
        "context": {
          "reference": "Encounter/Encounter-4402",
          "display": "DRR_Encounter"
        },
        "effectiveDateTime": "2017-10-13T01:00:00-04:00",
        "performer": [
          {
            "reference": "Practitioner/Practitioner-2532",
            "display": "Chad Espinoza Potter MD"
          }
        ],
        "valueQuantity": {
          "value": 126.00670279945274,
          "unit": "mmHg"
        }
      },
      "request": {
        "method": "PUT",
        "url": "http://localhost:8080/cqf-ruler/baseDstu3/Observation/Observation-693940"
      }
    },
    {
      "fullUrl": "http://localhost:8080/cqf-ruler/baseDstu3/Observation/Observation-693941",
      "resource": {
        "resourceType": "Observation",
        "id": "Observation-693941",
        "status": "final",
        "code": {
          "coding": [
            {
              "system": "http://loinc.org",
              "code": "8453-3",
              "display": "Diastolic Blood Pressure"
            }
          ]
        },
        "subject": {
          "reference": "Patient/Patient-6555",
          "display": "Juanita Brittany Fuller"
        },
        "context": {
          "reference": "Encounter/Encounter-4402",
          "display": "DRR_Encounter"
        },
        "effectiveDateTime": "2017-10-13T01:00:00-04:00",
        "performer": [
          {
            "reference": "Practitioner/Practitioner-2532",
            "display": "Chad Espinoza Potter MD"
          }
        ],
        "valueQuantity": {
          "value": 66.16130132518835,
          "unit": "mmHg"
        }
      },
      "request": {
        "method": "PUT",
        "url": "http://localhost:8080/cqf-ruler/baseDstu3/Observation/Observation-693941"
      }
    },
    {
      "fullUrl": "http://localhost:8080/cqf-ruler/baseDstu3/DiagnosticReport/DiagnosticReport-693935",
      "resource": {
        "resourceType": "DiagnosticReport",
        "id": "DiagnosticReport-693935",
        "meta": {
          "profile": [
            "http://hl7.org/fhir/us/hedis/StructureDefinition/hedis-diagnosticreport"
          ]
        },
        "status": "final",
        "category": {
          "coding": [
            {
              "system": "http://hl7.org/fhir/ValueSet/diagnostic-service-sections",
              "code": "LAB",
              "display": "Laboratory"
            }
          ]
        },
        "code": {
          "coding": [
            {
              "system": "http://loinc.org",
              "code": "8716-3",
              "display": "Vital Signs Panel"
            }
          ]
        },
        "subject": {
          "reference": "Patient/Patient-6555",
          "display": "Juanita Brittany Fuller"
        },
        "context": {
          "reference": "Encounter/Encounter-4402",
          "display": "DRR_Encounter"
        },
        "effectivePeriod": {
          "start": "2017-10-13T01:00:00-04:00",
          "end": "2017-10-13T01:00:00-04:00"
        },
        "issued": "2017-10-13T01:00:00.000-04:00",
        "result": [
          {
            "reference": "Observation/Observation-693936",
            "display": "Height"
          },
          {
            "reference": "Observation/Observation-693937",
            "display": "Weight"
          },
          {
            "reference": "Observation/Observation-693938",
            "display": "BMI"
          },
          {
            "reference": "Observation/Observation-693939",
            "display": "Temperature"
          },
          {
            "reference": "Observation/Observation-693940",
            "display": "Systolic Blood Pressure"
          },
          {
            "reference": "Observation/Observation-693941",
            "display": "Diastolic Blood Pressure"
          }
        ]
      },
      "request": {
        "method": "PUT",
        "url": "http://localhost:8080/cqf-ruler/baseDstu3/DiagnosticReport/DiagnosticReport-693935"
      }
    }
  ]
}