{
  "resourceType": "Bundle",
  "id": "Jeffery-Frank-Gray-6510-Encounter-578",
  "type": "transaction",
  "entry": [
    {
      "fullUrl": "http://localhost:8080/cqf-ruler/baseDstu3/Encounter/Encounter-578",
      "resource": {
        "resourceType": "Encounter",
        "id": "Encounter-578",
        "meta": {
          "profile": [
            "http://hl7.org/fhir/us/hedis/StructureDefinition/hedis-encounter"
          ]
        },
        "status": "finished",
        "class": {
          "system": "http://hl7.org/fhir/encounter-class",
          "code": "ambulatory",
          "display": "Ambulatory"
        },
        "type": [
          {
            "coding": [
              {
                "system": "http://snomed.info/sct",
                "code": "185345009",
                "display": "Encounter for symptom"
              }
            ]
          }
        ],
        "subject": {
          "reference": "Patient/Patient-6510",
          "display": "Jeffery Frank Gray"
        },
        "participant": [
          {
            "period": {
              "start": "1992-05-15T07:00:00-04:00",
              "end": "1992-05-15T07:00:00-04:00"
            },
            "individual": {
              "reference": "Practitioner/Practitioner-2517",
              "display": "Cathy Shannon Warner MD"
            }
          }
        ],
        "period": {
          "start": "1992-05-15T07:00:00-04:00",
          "end": "1992-05-15T07:00:00-04:00"
        },
        "location": [
          {
            "location": {
              "reference": "Location/Location-1001",
              "display": "Windward General Hospital"
            }
          }
        ],
        "serviceProvider": {
          "reference": "Organization/Organization-1001",
          "display": "Windward General Hospital"
        }
      },
      "request": {
        "method": "PUT",
        "url": "http://localhost:8080/cqf-ruler/baseDstu3/Encounter/Encounter-578"
      }
    },
    {
      "fullUrl": "http://localhost:8080/cqf-ruler/baseDstu3/Procedure/Procedure-82438",
      "resource": {
        "resourceType": "Procedure",
        "id": "Procedure-82438",
        "meta": {
          "profile": [
            "http://hl7.org/fhir/us/hedis/StructureDefinition/hedis-procedure"
          ]
        },
        "status": "completed",
        "code": {
          "coding": [
            {
              "system": "http://snomed.info/sct",
              "code": "413473000",
              "display": "Counseling about alcohol consumption (procedure)"
            }
          ]
        },
        "subject": {
          "reference": "Patient/Patient-6510",
          "display": "Jeffery Frank Gray"
        },
        "context": {
          "reference": "Encounter/Encounter-578",
          "display": "Followup_Encounter"
        },
        "performedPeriod": {
          "start": "1992-05-15T07:00:00-04:00",
          "end": "1992-05-15T07:00:00-04:00"
        },
        "performer": [
          {
            "actor": {
              "reference": "Practitioner/Practitioner-2517",
              "display": "Cathy Shannon Warner MD"
            }
          }
        ],
        "location": {
          "reference": "Location/Location-1001",
          "display": "Windward General Hospital"
        }
      },
      "request": {
        "method": "PUT",
        "url": "http://localhost:8080/cqf-ruler/baseDstu3/Procedure/Procedure-82438"
      }
    },
    {
      "fullUrl": "http://localhost:8080/cqf-ruler/baseDstu3/Observation/Observation-82439",
      "resource": {
        "resourceType": "Observation",
        "id": "Observation-82439",
        "meta": {
          "profile": [
            "http://hl7.org/fhir/us/hedis/StructureDefinition/hedis-observation"
          ]
        },
        "status": "final",
        "code": {
          "coding": [
            {
              "system": "https://www.cms.gov/Medicare/Coding/MedHCPCSGenInfo",
              "code": "H0015",
              "display": "Alcohol and/or drug services; intensive outpatient (treatment program that operates at least 3 hours/day and at least 3 days/week and is based on an individualized treatment plan), including assessment, counseling; crisis intervention, and activity therapies or education (H0015)"
            }
          ]
        },
        "subject": {
          "reference": "Patient/Patient-6510",
          "display": "Jeffery Frank Gray"
        },
        "context": {
          "reference": "Encounter/Encounter-578",
          "display": "Followup_Encounter"
        },
        "effectiveDateTime": "1992-05-15T07:00:00-04:00",
        "performer": [
          {
            "reference": "Practitioner/Practitioner-2517",
            "display": "Cathy Shannon Warner MD"
          }
        ],
        "valueString": "Why Not Procedure?"
      },
      "request": {
        "method": "PUT",
        "url": "http://localhost:8080/cqf-ruler/baseDstu3/Observation/Observation-82439"
      }
    },
    {
      "fullUrl": "http://localhost:8080/cqf-ruler/baseDstu3/Observation/Observation-82442",
      "resource": {
        "resourceType": "Observation",
        "id": "Observation-82442",
        "status": "final",
        "code": {
          "coding": [
            {
              "system": "http://loinc.org",
              "code": "8302-2",
              "display": "Height"
            }
          ]
        },
        "subject": {
          "reference": "Patient/Patient-6510",
          "display": "Jeffery Frank Gray"
        },
        "context": {
          "reference": "Encounter/Encounter-578",
          "display": "Followup_Encounter"
        },
        "effectiveDateTime": "1992-05-15T07:00:00-04:00",
        "performer": [
          {
            "reference": "Practitioner/Practitioner-2517",
            "display": "Cathy Shannon Warner MD"
          }
        ],
        "valueQuantity": {
          "value": 171.9,
          "unit": "cm"
        }
      },
      "request": {
        "method": "PUT",
        "url": "http://localhost:8080/cqf-ruler/baseDstu3/Observation/Observation-82442"
      }
    },
    {
      "fullUrl": "http://localhost:8080/cqf-ruler/baseDstu3/Observation/Observation-82443",
      "resource": {
        "resourceType": "Observation",
        "id": "Observation-82443",
        "status": "final",
        "code": {
          "coding": [
            {
              "system": "http://loinc.org",
              "code": "29463-7",
              "display": "Weight"
            }
          ]
        },
        "subject": {
          "reference": "Patient/Patient-6510",
          "display": "Jeffery Frank Gray"
        },
        "context": {
          "reference": "Encounter/Encounter-578",
          "display": "Followup_Encounter"
        },
        "effectiveDateTime": "1992-05-15T07:00:00-04:00",
        "performer": [
          {
            "reference": "Practitioner/Practitioner-2517",
            "display": "Cathy Shannon Warner MD"
          }
        ],
        "valueQuantity": {
          "value": 69.70161793636865,
          "unit": "kg"
        }
      },
      "request": {
        "method": "PUT",
        "url": "http://localhost:8080/cqf-ruler/baseDstu3/Observation/Observation-82443"
      }
    },
    {
      "fullUrl": "http://localhost:8080/cqf-ruler/baseDstu3/Observation/Observation-82444",
      "resource": {
        "resourceType": "Observation",
        "id": "Observation-82444",
        "status": "final",
        "code": {
          "coding": [
            {
              "system": "http://loinc.org",
              "code": "39156-5",
              "display": "BMI"
            }
          ]
        },
        "subject": {
          "reference": "Patient/Patient-6510",
          "display": "Jeffery Frank Gray"
        },
        "context": {
          "reference": "Encounter/Encounter-578",
          "display": "Followup_Encounter"
        },
        "effectiveDateTime": "1992-05-15T07:00:00-04:00",
        "performer": [
          {
            "reference": "Practitioner/Practitioner-2517",
            "display": "Cathy Shannon Warner MD"
          }
        ],
        "valueQuantity": {
          "value": 23.587999278626228,
          "unit": "kg/m2"
        }
      },
      "request": {
        "method": "PUT",
        "url": "http://localhost:8080/cqf-ruler/baseDstu3/Observation/Observation-82444"
      }
    },
    {
      "fullUrl": "http://localhost:8080/cqf-ruler/baseDstu3/Observation/Observation-82445",
      "resource": {
        "resourceType": "Observation",
        "id": "Observation-82445",
        "status": "final",
        "code": {
          "coding": [
            {
              "system": "http://loinc.org",
              "code": "8310-5",
              "display": "Temperature"
            }
          ]
        },
        "subject": {
          "reference": "Patient/Patient-6510",
          "display": "Jeffery Frank Gray"
        },
        "context": {
          "reference": "Encounter/Encounter-578",
          "display": "Followup_Encounter"
        },
        "effectiveDateTime": "1992-05-15T07:00:00-04:00",
        "performer": [
          {
            "reference": "Practitioner/Practitioner-2517",
            "display": "Cathy Shannon Warner MD"
          }
        ],
        "valueQuantity": {
          "value": 37.0,
          "unit": "C"
        }
      },
      "request": {
        "method": "PUT",
        "url": "http://localhost:8080/cqf-ruler/baseDstu3/Observation/Observation-82445"
      }
    },
    {
      "fullUrl": "http://localhost:8080/cqf-ruler/baseDstu3/Observation/Observation-82446",
      "resource": {
        "resourceType": "Observation",
        "id": "Observation-82446",
        "status": "final",
        "code": {
          "coding": [
            {
              "system": "http://loinc.org",
              "code": "8459-0",
              "display": "Systolic Blood Pressure"
            }
          ]
        },
        "subject": {
          "reference": "Patient/Patient-6510",
          "display": "Jeffery Frank Gray"
        },
        "context": {
          "reference": "Encounter/Encounter-578",
          "display": "Followup_Encounter"
        },
        "effectiveDateTime": "1992-05-15T07:00:00-04:00",
        "performer": [
          {
            "reference": "Practitioner/Practitioner-2517",
            "display": "Cathy Shannon Warner MD"
          }
        ],
        "valueQuantity": {
          "value": 125.49879944170041,
          "unit": "mmHg"
        }
      },
      "request": {
        "method": "PUT",
        "url": "http://localhost:8080/cqf-ruler/baseDstu3/Observation/Observation-82446"
      }
    },
    {
      "fullUrl": "http://localhost:8080/cqf-ruler/baseDstu3/Observation/Observation-82447",
      "resource": {
        "resourceType": "Observation",
        "id": "Observation-82447",
        "status": "final",
        "code": {
          "coding": [
            {
              "system": "http://loinc.org",
              "code": "8453-3",
              "display": "Diastolic Blood Pressure"
            }
          ]
        },
        "subject": {
          "reference": "Patient/Patient-6510",
          "display": "Jeffery Frank Gray"
        },
        "context": {
          "reference": "Encounter/Encounter-578",
          "display": "Followup_Encounter"
        },
        "effectiveDateTime": "1992-05-15T07:00:00-04:00",
        "performer": [
          {
            "reference": "Practitioner/Practitioner-2517",
            "display": "Cathy Shannon Warner MD"
          }
        ],
        "valueQuantity": {
          "value": 70.56876580694889,
          "unit": "mmHg"
        }
      },
      "request": {
        "method": "PUT",
        "url": "http://localhost:8080/cqf-ruler/baseDstu3/Observation/Observation-82447"
      }
    },
    {
      "fullUrl": "http://localhost:8080/cqf-ruler/baseDstu3/DiagnosticReport/DiagnosticReport-82441",
      "resource": {
        "resourceType": "DiagnosticReport",
        "id": "DiagnosticReport-82441",
        "meta": {
          "profile": [
            "http://hl7.org/fhir/us/hedis/StructureDefinition/hedis-diagnosticreport"
          ]
        },
        "status": "final",
        "category": {
          "coding": [
            {
              "system": "http://hl7.org/fhir/ValueSet/diagnostic-service-sections",
              "code": "LAB",
              "display": "Laboratory"
            }
          ]
        },
        "code": {
          "coding": [
            {
              "system": "http://loinc.org",
              "code": "8716-3",
              "display": "Vital Signs Panel"
            }
          ]
        },
        "subject": {
          "reference": "Patient/Patient-6510",
          "display": "Jeffery Frank Gray"
        },
        "context": {
          "reference": "Encounter/Encounter-578",
          "display": "Followup_Encounter"
        },
        "effectivePeriod": {
          "start": "1992-05-15T07:00:00-04:00",
          "end": "1992-05-15T07:00:00-04:00"
        },
        "issued": "1992-05-15T07:00:00.000-04:00",
        "result": [
          {
            "reference": "Observation/Observation-82442",
            "display": "Height"
          },
          {
            "reference": "Observation/Observation-82443",
            "display": "Weight"
          },
          {
            "reference": "Observation/Observation-82444",
            "display": "BMI"
          },
          {
            "reference": "Observation/Observation-82445",
            "display": "Temperature"
          },
          {
            "reference": "Observation/Observation-82446",
            "display": "Systolic Blood Pressure"
          },
          {
            "reference": "Observation/Observation-82447",
            "display": "Diastolic Blood Pressure"
          }
        ]
      },
      "request": {
        "method": "PUT",
        "url": "http://localhost:8080/cqf-ruler/baseDstu3/DiagnosticReport/DiagnosticReport-82441"
      }
    }
  ]
}