{
  "resourceType": "Bundle",
  "id": "Jeffery-Frank-Gray-6510-Encounter-918",
  "type": "transaction",
  "entry": [
    {
      "fullUrl": "http://localhost:8080/cqf-ruler/baseDstu3Encounter/Encounter-918",
      "resource": {
        "resourceType": "Encounter",
        "id": "Encounter-918",
        "status": "finished",
        "class": {
          "system": "http://hl7.org/fhir/encounter-class",
          "code": "outpatient",
          "display": "Inpatient"
        },
        "subject": {
          "reference": "Patient/Patient-6510",
          "display": "Jeffery Frank Gray"
        },
        "participant": [
          {
            "period": {
              "start": "1999-01-27T00:00:00-05:00",
              "end": "1999-01-27T00:00:00-05:00"
            },
            "individual": {
              "reference": "Practitioner/Practitioner-2527",
              "display": "Lee Chris Mejia MD"
            }
          }
        ],
        "period": {
          "start": "1999-01-27T00:00:00-05:00",
          "end": "1999-01-27T00:00:00-05:00"
        },
        "location": [
          {
            "location": {
              "reference": "Location/Location-1106",
              "display": "Cranston Family Medical"
            }
          }
        ],
        "serviceProvider": {
          "reference": "Organization/Organization-1106",
          "display": "Cranston Family Medical"
        }
      },
      "request": {
        "method": "PUT",
        "url": "http://localhost:8080/cqf-ruler/baseDstu3Encounter/Encounter-918"
      }
    },
    {
      "fullUrl": "http://localhost:8080/cqf-ruler/baseDstu3Immunization/Immunization-153628",
      "resource": {
        "resourceType": "Immunization",
        "id": "Immunization-153628",
        "status": "completed",
        "notGiven": false,
        "vaccineCode": {
          "coding": [
            {
              "system": "http://hl7.org/fhir/sid/cvx",
              "code": "140",
              "display": "Influenza, seasonal, injectable, preservative free"
            }
          ]
        },
        "patient": {
          "reference": "Patient/Patient-6510",
          "display": "Jeffery Frank Gray"
        },
        "date": "1999-01-27T00:00:00-05:00",
        "primarySource": true,
        "location": {
          "reference": "Location/Location-1106",
          "display": "Cranston Family Medical"
        },
        "practitioner": [
          {
            "actor": {
              "reference": "Practitioner/Practitioner-2527",
              "display": "Lee Chris Mejia MD"
            }
          }
        ]
      },
      "request": {
        "method": "PUT",
        "url": "http://localhost:8080/cqf-ruler/baseDstu3Immunization/Immunization-153628"
      }
    },
    {
      "fullUrl": "http://localhost:8080/cqf-ruler/baseDstu3Observation/Observation-213414",
      "resource": {
        "resourceType": "Observation",
        "id": "Observation-213414",
        "status": "final",
        "code": {
          "coding": [
            {
              "system": "http://loinc.org",
              "code": "8302-2",
              "display": "Height"
            }
          ]
        },
        "subject": {
          "reference": "Patient/Patient-6510",
          "display": "Jeffery Frank Gray"
        },
        "context": {
          "reference": "Encounter/Encounter-918",
          "display": "Wellness Visit"
        },
        "effectiveDateTime": "1999-01-27T00:00:00-05:00",
        "performer": [
          {
            "reference": "Practitioner/Practitioner-2527",
            "display": "Lee Chris Mejia MD"
          }
        ],
        "valueQuantity": {
          "value": 172.0,
          "unit": "cm"
        }
      },
      "request": {
        "method": "PUT",
        "url": "http://localhost:8080/cqf-ruler/baseDstu3Observation/Observation-213414"
      }
    },
    {
      "fullUrl": "http://localhost:8080/cqf-ruler/baseDstu3Observation/Observation-213415",
      "resource": {
        "resourceType": "Observation",
        "id": "Observation-213415",
        "status": "final",
        "code": {
          "coding": [
            {
              "system": "http://loinc.org",
              "code": "29463-7",
              "display": "Weight"
            }
          ]
        },
        "subject": {
          "reference": "Patient/Patient-6510",
          "display": "Jeffery Frank Gray"
        },
        "context": {
          "reference": "Encounter/Encounter-918",
          "display": "Wellness Visit"
        },
        "effectiveDateTime": "1999-01-27T00:00:00-05:00",
        "performer": [
          {
            "reference": "Practitioner/Practitioner-2527",
            "display": "Lee Chris Mejia MD"
          }
        ],
        "valueQuantity": {
          "value": 71.79327951689169,
          "unit": "kg"
        }
      },
      "request": {
        "method": "PUT",
        "url": "http://localhost:8080/cqf-ruler/baseDstu3Observation/Observation-213415"
      }
    },
    {
      "fullUrl": "http://localhost:8080/cqf-ruler/baseDstu3Observation/Observation-213416",
      "resource": {
        "resourceType": "Observation",
        "id": "Observation-213416",
        "status": "final",
        "code": {
          "coding": [
            {
              "system": "http://loinc.org",
              "code": "39156-5",
              "display": "BMI"
            }
          ]
        },
        "subject": {
          "reference": "Patient/Patient-6510",
          "display": "Jeffery Frank Gray"
        },
        "context": {
          "reference": "Encounter/Encounter-918",
          "display": "Wellness Visit"
        },
        "effectiveDateTime": "1999-01-27T00:00:00-05:00",
        "performer": [
          {
            "reference": "Practitioner/Practitioner-2527",
            "display": "Lee Chris Mejia MD"
          }
        ],
        "valueQuantity": {
          "value": 24.26760394702937,
          "unit": "kg/m2"
        }
      },
      "request": {
        "method": "PUT",
        "url": "http://localhost:8080/cqf-ruler/baseDstu3Observation/Observation-213416"
      }
    },
    {
      "fullUrl": "http://localhost:8080/cqf-ruler/baseDstu3Observation/Observation-213417",
      "resource": {
        "resourceType": "Observation",
        "id": "Observation-213417",
        "status": "final",
        "code": {
          "coding": [
            {
              "system": "http://loinc.org",
              "code": "8310-5",
              "display": "Temperature"
            }
          ]
        },
        "subject": {
          "reference": "Patient/Patient-6510",
          "display": "Jeffery Frank Gray"
        },
        "context": {
          "reference": "Encounter/Encounter-918",
          "display": "Wellness Visit"
        },
        "effectiveDateTime": "1999-01-27T00:00:00-05:00",
        "performer": [
          {
            "reference": "Practitioner/Practitioner-2527",
            "display": "Lee Chris Mejia MD"
          }
        ],
        "valueQuantity": {
          "value": 37.0,
          "unit": "C"
        }
      },
      "request": {
        "method": "PUT",
        "url": "http://localhost:8080/cqf-ruler/baseDstu3Observation/Observation-213417"
      }
    },
    {
      "fullUrl": "http://localhost:8080/cqf-ruler/baseDstu3Observation/Observation-213418",
      "resource": {
        "resourceType": "Observation",
        "id": "Observation-213418",
        "status": "final",
        "code": {
          "coding": [
            {
              "system": "http://loinc.org",
              "code": "8459-0",
              "display": "Systolic Blood Pressure"
            }
          ]
        },
        "subject": {
          "reference": "Patient/Patient-6510",
          "display": "Jeffery Frank Gray"
        },
        "context": {
          "reference": "Encounter/Encounter-918",
          "display": "Wellness Visit"
        },
        "effectiveDateTime": "1999-01-27T00:00:00-05:00",
        "performer": [
          {
            "reference": "Practitioner/Practitioner-2527",
            "display": "Lee Chris Mejia MD"
          }
        ],
        "valueQuantity": {
          "value": 130.17838125820774,
          "unit": "mmHg"
        }
      },
      "request": {
        "method": "PUT",
        "url": "http://localhost:8080/cqf-ruler/baseDstu3Observation/Observation-213418"
      }
    },
    {
      "fullUrl": "http://localhost:8080/cqf-ruler/baseDstu3Observation/Observation-213419",
      "resource": {
        "resourceType": "Observation",
        "id": "Observation-213419",
        "status": "final",
        "code": {
          "coding": [
            {
              "system": "http://loinc.org",
              "code": "8453-3",
              "display": "Diastolic Blood Pressure"
            }
          ]
        },
        "subject": {
          "reference": "Patient/Patient-6510",
          "display": "Jeffery Frank Gray"
        },
        "context": {
          "reference": "Encounter/Encounter-918",
          "display": "Wellness Visit"
        },
        "effectiveDateTime": "1999-01-27T00:00:00-05:00",
        "performer": [
          {
            "reference": "Practitioner/Practitioner-2527",
            "display": "Lee Chris Mejia MD"
          }
        ],
        "valueQuantity": {
          "value": 88.6248548246888,
          "unit": "mmHg"
        }
      },
      "request": {
        "method": "PUT",
        "url": "http://localhost:8080/cqf-ruler/baseDstu3Observation/Observation-213419"
      }
    },
    {
      "fullUrl": "http://localhost:8080/cqf-ruler/baseDstu3DiagnosticReport/DiagnosticReport-213413",
      "resource": {
        "resourceType": "DiagnosticReport",
        "id": "DiagnosticReport-213413",
        "status": "final",
        "code": {
          "coding": [
            {
              "system": "http://loinc.org",
              "code": "8716-3",
              "display": "Vital Signs Panel"
            }
          ]
        },
        "subject": {
          "reference": "Patient/Patient-6510",
          "display": "Jeffery Frank Gray"
        },
        "context": {
          "reference": "Encounter/Encounter-918",
          "display": "Wellness Visit"
        },
        "effectivePeriod": {
          "start": "1999-01-27T00:00:00-05:00",
          "end": "1999-01-27T00:00:00-05:00"
        },
        "issued": "1999-01-27T00:00:00.000-05:00",
        "result": [
          {
            "reference": "Observation/Observation-213414",
            "display": "Height"
          },
          {
            "reference": "Observation/Observation-213415",
            "display": "Weight"
          },
          {
            "reference": "Observation/Observation-213416",
            "display": "BMI"
          },
          {
            "reference": "Observation/Observation-213417",
            "display": "Temperature"
          },
          {
            "reference": "Observation/Observation-213418",
            "display": "Systolic Blood Pressure"
          },
          {
            "reference": "Observation/Observation-213419",
            "display": "Diastolic Blood Pressure"
          }
        ]
      },
      "request": {
        "method": "PUT",
        "url": "http://localhost:8080/cqf-ruler/baseDstu3DiagnosticReport/DiagnosticReport-213413"
      }
    }
  ]
}