{
  "resourceType": "Bundle",
  "id": "Micheal-Clarence-McKee-6524-Encounter-229",
  "type": "transaction",
  "entry": [
    {
      "fullUrl": "http://localhost:8080/cqf-ruler/baseDstu3/Encounter/Encounter-229",
      "resource": {
        "resourceType": "Encounter",
        "id": "Encounter-229",
        "status": "finished",
        "class": {
          "system": "http://hl7.org/fhir/encounter-class",
          "code": "outpatient",
          "display": "Inpatient"
        },
        "subject": {
          "reference": "Patient/Patient-6524",
          "display": "Micheal Clarence McKee"
        },
        "participant": [
          {
            "period": {
              "start": "1988-02-26T00:00:00-05:00",
              "end": "1988-02-26T00:00:00-05:00"
            },
            "individual": {
              "reference": "Practitioner/Practitioner-2521",
              "display": "Heather Fuentes Guerra MD"
            }
          }
        ],
        "period": {
          "start": "1988-02-26T00:00:00-05:00",
          "end": "1988-02-26T00:00:00-05:00"
        },
        "location": [
          {
            "location": {
              "reference": "Location/Location-1106",
              "display": "Cranston Family Medical"
            }
          }
        ],
        "serviceProvider": {
          "reference": "Organization/Organization-1106",
          "display": "Cranston Family Medical"
        }
      },
      "request": {
        "method": "PUT",
        "url": "http://localhost:8080/cqf-ruler/baseDstu3/Encounter/Encounter-229"
      }
    },
    {
      "fullUrl": "http://localhost:8080/cqf-ruler/baseDstu3/Immunization/Immunization-1248",
      "resource": {
        "resourceType": "Immunization",
        "id": "Immunization-1248",
        "status": "completed",
        "notGiven": false,
        "vaccineCode": {
          "coding": [
            {
              "system": "http://hl7.org/fhir/sid/cvx",
              "code": "140",
              "display": "Influenza, seasonal, injectable, preservative free"
            }
          ]
        },
        "patient": {
          "reference": "Patient/Patient-6524",
          "display": "Micheal Clarence McKee"
        },
        "date": "1988-02-26T00:00:00-05:00",
        "primarySource": true,
        "location": {
          "reference": "Location/Location-1106",
          "display": "Cranston Family Medical"
        },
        "practitioner": [
          {
            "actor": {
              "reference": "Practitioner/Practitioner-2521",
              "display": "Heather Fuentes Guerra MD"
            }
          }
        ]
      },
      "request": {
        "method": "PUT",
        "url": "http://localhost:8080/cqf-ruler/baseDstu3/Immunization/Immunization-1248"
      }
    },
    {
      "fullUrl": "http://localhost:8080/cqf-ruler/baseDstu3/Immunization/Immunization-1249",
      "resource": {
        "resourceType": "Immunization",
        "id": "Immunization-1249",
        "status": "completed",
        "notGiven": false,
        "vaccineCode": {
          "coding": [
            {
              "system": "http://hl7.org/fhir/sid/cvx",
              "code": "113",
              "display": "Td (adult) preservative free"
            }
          ]
        },
        "patient": {
          "reference": "Patient/Patient-6524",
          "display": "Micheal Clarence McKee"
        },
        "date": "1988-02-26T00:00:00-05:00",
        "primarySource": true,
        "location": {
          "reference": "Location/Location-1106",
          "display": "Cranston Family Medical"
        },
        "practitioner": [
          {
            "actor": {
              "reference": "Practitioner/Practitioner-2521",
              "display": "Heather Fuentes Guerra MD"
            }
          }
        ]
      },
      "request": {
        "method": "PUT",
        "url": "http://localhost:8080/cqf-ruler/baseDstu3/Immunization/Immunization-1249"
      }
    },
    {
      "fullUrl": "http://localhost:8080/cqf-ruler/baseDstu3/Observation/Observation-3325",
      "resource": {
        "resourceType": "Observation",
        "id": "Observation-3325",
        "status": "final",
        "code": {
          "coding": [
            {
              "system": "http://loinc.org",
              "code": "8480-6",
              "display": "Systolic blood pressure"
            }
          ]
        },
        "subject": {
          "reference": "Patient/Patient-6524",
          "display": "Micheal Clarence McKee"
        },
        "context": {
          "reference": "Encounter/Encounter-229",
          "display": "Wellness Visit"
        },
        "effectivePeriod": {
          "start": "1988-02-26T00:00:00-05:00",
          "end": "1988-02-26T00:00:00-05:00"
        },
        "performer": [
          {
            "reference": "Practitioner/Practitioner-2521",
            "display": "Heather Fuentes Guerra MD"
          }
        ],
        "valueQuantity": {
          "value": 108.79330186337523,
          "unit": "mmHg"
        }
      },
      "request": {
        "method": "PUT",
        "url": "http://localhost:8080/cqf-ruler/baseDstu3/Observation/Observation-3325"
      }
    },
    {
      "fullUrl": "http://localhost:8080/cqf-ruler/baseDstu3/Observation/Observation-3326",
      "resource": {
        "resourceType": "Observation",
        "id": "Observation-3326",
        "status": "final",
        "code": {
          "coding": [
            {
              "system": "http://loinc.org",
              "code": "8462-4",
              "display": "Diastolic blood pressure"
            }
          ]
        },
        "subject": {
          "reference": "Patient/Patient-6524",
          "display": "Micheal Clarence McKee"
        },
        "context": {
          "reference": "Encounter/Encounter-229",
          "display": "Wellness Visit"
        },
        "effectivePeriod": {
          "start": "1988-02-26T00:00:00-05:00",
          "end": "1988-02-26T00:00:00-05:00"
        },
        "performer": [
          {
            "reference": "Practitioner/Practitioner-2521",
            "display": "Heather Fuentes Guerra MD"
          }
        ],
        "valueQuantity": {
          "value": 116.35711601156733,
          "unit": "mmHg"
        }
      },
      "request": {
        "method": "PUT",
        "url": "http://localhost:8080/cqf-ruler/baseDstu3/Observation/Observation-3326"
      }
    },
    {
      "fullUrl": "http://localhost:8080/cqf-ruler/baseDstu3/Condition/Condition-3327",
      "resource": {
        "resourceType": "Condition",
        "id": "Condition-3327",
        "clinicalStatus": "active",
        "verificationStatus": "confirmed",
        "code": {
          "coding": [
            {
              "system": "http://snomed.info/sct",
              "code": "59621000",
              "display": "Essential hypertension"
            }
          ]
        },
        "subject": {
          "reference": "Patient/Patient-6524",
          "display": "Micheal Clarence McKee"
        },
        "context": {
          "reference": "Encounter/Encounter-229",
          "display": "Wellness Visit"
        },
        "onsetDateTime": "1988-02-26T00:00:00-05:00",
        "assertedDate": "1988-02-26T00:00:00-05:00",
        "asserter": {
          "reference": "Practitioner/Practitioner-2521",
          "display": "Heather Fuentes Guerra MD"
        }
      },
      "request": {
        "method": "PUT",
        "url": "http://localhost:8080/cqf-ruler/baseDstu3/Condition/Condition-3327"
      }
    },
    {
      "fullUrl": "http://localhost:8080/cqf-ruler/baseDstu3/Observation/Observation-3328",
      "resource": {
        "resourceType": "Observation",
        "id": "Observation-3328",
        "status": "final",
        "code": {
          "coding": [
            {
              "system": "http://loinc.org",
              "code": "8302-2",
              "display": "Body Height"
            }
          ]
        },
        "subject": {
          "reference": "Patient/Patient-6524",
          "display": "Micheal Clarence McKee"
        },
        "context": {
          "reference": "Encounter/Encounter-229",
          "display": "Wellness Visit"
        },
        "effectivePeriod": {
          "start": "1988-02-26T00:00:00-05:00",
          "end": "1988-02-26T00:00:00-05:00"
        },
        "performer": [
          {
            "reference": "Practitioner/Practitioner-2521",
            "display": "Heather Fuentes Guerra MD"
          }
        ],
        "valueQuantity": {
          "value": 172.0,
          "unit": "cm"
        }
      },
      "request": {
        "method": "PUT",
        "url": "http://localhost:8080/cqf-ruler/baseDstu3/Observation/Observation-3328"
      }
    },
    {
      "fullUrl": "http://localhost:8080/cqf-ruler/baseDstu3/Observation/Observation-3329",
      "resource": {
        "resourceType": "Observation",
        "id": "Observation-3329",
        "status": "final",
        "code": {
          "coding": [
            {
              "system": "http://loinc.org",
              "code": "29463-7",
              "display": "Body Weight"
            }
          ]
        },
        "subject": {
          "reference": "Patient/Patient-6524",
          "display": "Micheal Clarence McKee"
        },
        "context": {
          "reference": "Encounter/Encounter-229",
          "display": "Wellness Visit"
        },
        "effectivePeriod": {
          "start": "1988-02-26T00:00:00-05:00",
          "end": "1988-02-26T00:00:00-05:00"
        },
        "performer": [
          {
            "reference": "Practitioner/Practitioner-2521",
            "display": "Heather Fuentes Guerra MD"
          }
        ],
        "valueQuantity": {
          "value": 66.08834107496136,
          "unit": "kg"
        }
      },
      "request": {
        "method": "PUT",
        "url": "http://localhost:8080/cqf-ruler/baseDstu3/Observation/Observation-3329"
      }
    },
    {
      "fullUrl": "http://localhost:8080/cqf-ruler/baseDstu3/Observation/Observation-3330",
      "resource": {
        "resourceType": "Observation",
        "id": "Observation-3330",
        "status": "final",
        "code": {
          "coding": [
            {
              "system": "http://loinc.org",
              "code": "39156-5",
              "display": "Body Mass Index"
            }
          ]
        },
        "subject": {
          "reference": "Patient/Patient-6524",
          "display": "Micheal Clarence McKee"
        },
        "context": {
          "reference": "Encounter/Encounter-229",
          "display": "Wellness Visit"
        },
        "effectivePeriod": {
          "start": "1988-02-26T00:00:00-05:00",
          "end": "1988-02-26T00:00:00-05:00"
        },
        "performer": [
          {
            "reference": "Practitioner/Practitioner-2521",
            "display": "Heather Fuentes Guerra MD"
          }
        ],
        "valueQuantity": {
          "value": 22.339217507761415,
          "unit": "kg/m2"
        }
      },
      "request": {
        "method": "PUT",
        "url": "http://localhost:8080/cqf-ruler/baseDstu3/Observation/Observation-3330"
      }
    },
    {
      "fullUrl": "http://localhost:8080/cqf-ruler/baseDstu3/Observation/Observation-3333",
      "resource": {
        "resourceType": "Observation",
        "id": "Observation-3333",
        "status": "final",
        "category": [
          {
            "coding": [
              {
                "system": "http://hl7.org/fhir/observation-category",
                "code": "vital-signs",
                "display": "vital-signs"
              }
            ]
          }
        ],
        "code": {
          "coding": [
            {
              "system": "http://loinc.org",
              "code": "55284-4",
              "display": "Blood Pressure"
            }
          ]
        },
        "subject": {
          "reference": "Patient/Patient-6524",
          "display": "Micheal Clarence McKee"
        },
        "context": {
          "reference": "Encounter/Encounter-229",
          "display": "Wellness Visit"
        },
        "effectivePeriod": {
          "start": "1988-02-26T00:00:00-05:00",
          "end": "1988-02-26T00:00:00-05:00"
        },
        "valueQuantity": {
          "value": 116.35711601156733,
          "unit": "mmHg"
        },
        "component": [
          {
            "code": {
              "coding": [
                {
                  "system": "http://loinc.org",
                  "code": "8480-6",
                  "display": "Systolic Blood Pressure"
                }
              ]
            }
          },
          {
            "code": {
              "coding": [
                {
                  "system": "http://loinc.org",
                  "code": "8462-4",
                  "display": "Diastolic Blood Pressure"
                }
              ]
            }
          }
        ]
      },
      "request": {
        "method": "PUT",
        "url": "http://localhost:8080/cqf-ruler/baseDstu3/Observation/Observation-3333"
      }
    },
    {
      "fullUrl": "http://localhost:8080/cqf-ruler/baseDstu3/Observation/Observation-3335",
      "resource": {
        "resourceType": "Observation",
        "id": "Observation-3335",
        "status": "final",
        "code": {
          "coding": [
            {
              "system": "http://loinc.org",
              "code": "8302-2",
              "display": "Height"
            }
          ]
        },
        "subject": {
          "reference": "Patient/Patient-6524",
          "display": "Micheal Clarence McKee"
        },
        "context": {
          "reference": "Encounter/Encounter-229",
          "display": "Wellness Visit"
        },
        "effectiveDateTime": "1988-02-26T00:00:00-05:00",
        "performer": [
          {
            "reference": "Practitioner/Practitioner-2521",
            "display": "Heather Fuentes Guerra MD"
          }
        ],
        "valueQuantity": {
          "value": 172.0,
          "unit": "cm"
        }
      },
      "request": {
        "method": "PUT",
        "url": "http://localhost:8080/cqf-ruler/baseDstu3/Observation/Observation-3335"
      }
    },
    {
      "fullUrl": "http://localhost:8080/cqf-ruler/baseDstu3/Observation/Observation-3336",
      "resource": {
        "resourceType": "Observation",
        "id": "Observation-3336",
        "status": "final",
        "code": {
          "coding": [
            {
              "system": "http://loinc.org",
              "code": "29463-7",
              "display": "Weight"
            }
          ]
        },
        "subject": {
          "reference": "Patient/Patient-6524",
          "display": "Micheal Clarence McKee"
        },
        "context": {
          "reference": "Encounter/Encounter-229",
          "display": "Wellness Visit"
        },
        "effectiveDateTime": "1988-02-26T00:00:00-05:00",
        "performer": [
          {
            "reference": "Practitioner/Practitioner-2521",
            "display": "Heather Fuentes Guerra MD"
          }
        ],
        "valueQuantity": {
          "value": 66.08834107496136,
          "unit": "kg"
        }
      },
      "request": {
        "method": "PUT",
        "url": "http://localhost:8080/cqf-ruler/baseDstu3/Observation/Observation-3336"
      }
    },
    {
      "fullUrl": "http://localhost:8080/cqf-ruler/baseDstu3/Observation/Observation-3337",
      "resource": {
        "resourceType": "Observation",
        "id": "Observation-3337",
        "status": "final",
        "code": {
          "coding": [
            {
              "system": "http://loinc.org",
              "code": "39156-5",
              "display": "BMI"
            }
          ]
        },
        "subject": {
          "reference": "Patient/Patient-6524",
          "display": "Micheal Clarence McKee"
        },
        "context": {
          "reference": "Encounter/Encounter-229",
          "display": "Wellness Visit"
        },
        "effectiveDateTime": "1988-02-26T00:00:00-05:00",
        "performer": [
          {
            "reference": "Practitioner/Practitioner-2521",
            "display": "Heather Fuentes Guerra MD"
          }
        ],
        "valueQuantity": {
          "value": 22.339217507761415,
          "unit": "kg/m2"
        }
      },
      "request": {
        "method": "PUT",
        "url": "http://localhost:8080/cqf-ruler/baseDstu3/Observation/Observation-3337"
      }
    },
    {
      "fullUrl": "http://localhost:8080/cqf-ruler/baseDstu3/Observation/Observation-3338",
      "resource": {
        "resourceType": "Observation",
        "id": "Observation-3338",
        "status": "final",
        "code": {
          "coding": [
            {
              "system": "http://loinc.org",
              "code": "8310-5",
              "display": "Temperature"
            }
          ]
        },
        "subject": {
          "reference": "Patient/Patient-6524",
          "display": "Micheal Clarence McKee"
        },
        "context": {
          "reference": "Encounter/Encounter-229",
          "display": "Wellness Visit"
        },
        "effectiveDateTime": "1988-02-26T00:00:00-05:00",
        "performer": [
          {
            "reference": "Practitioner/Practitioner-2521",
            "display": "Heather Fuentes Guerra MD"
          }
        ],
        "valueQuantity": {
          "value": 37.0,
          "unit": "C"
        }
      },
      "request": {
        "method": "PUT",
        "url": "http://localhost:8080/cqf-ruler/baseDstu3/Observation/Observation-3338"
      }
    },
    {
      "fullUrl": "http://localhost:8080/cqf-ruler/baseDstu3/Observation/Observation-3339",
      "resource": {
        "resourceType": "Observation",
        "id": "Observation-3339",
        "status": "final",
        "code": {
          "coding": [
            {
              "system": "http://loinc.org",
              "code": "8459-0",
              "display": "Systolic Blood Pressure"
            }
          ]
        },
        "subject": {
          "reference": "Patient/Patient-6524",
          "display": "Micheal Clarence McKee"
        },
        "context": {
          "reference": "Encounter/Encounter-229",
          "display": "Wellness Visit"
        },
        "effectiveDateTime": "1988-02-26T00:00:00-05:00",
        "performer": [
          {
            "reference": "Practitioner/Practitioner-2521",
            "display": "Heather Fuentes Guerra MD"
          }
        ],
        "valueQuantity": {
          "value": 108.79330186337523,
          "unit": "mmHg"
        }
      },
      "request": {
        "method": "PUT",
        "url": "http://localhost:8080/cqf-ruler/baseDstu3/Observation/Observation-3339"
      }
    },
    {
      "fullUrl": "http://localhost:8080/cqf-ruler/baseDstu3/Observation/Observation-3340",
      "resource": {
        "resourceType": "Observation",
        "id": "Observation-3340",
        "status": "final",
        "code": {
          "coding": [
            {
              "system": "http://loinc.org",
              "code": "8453-3",
              "display": "Diastolic Blood Pressure"
            }
          ]
        },
        "subject": {
          "reference": "Patient/Patient-6524",
          "display": "Micheal Clarence McKee"
        },
        "context": {
          "reference": "Encounter/Encounter-229",
          "display": "Wellness Visit"
        },
        "effectiveDateTime": "1988-02-26T00:00:00-05:00",
        "performer": [
          {
            "reference": "Practitioner/Practitioner-2521",
            "display": "Heather Fuentes Guerra MD"
          }
        ],
        "valueQuantity": {
          "value": 116.35711601156733,
          "unit": "mmHg"
        }
      },
      "request": {
        "method": "PUT",
        "url": "http://localhost:8080/cqf-ruler/baseDstu3/Observation/Observation-3340"
      }
    },
    {
      "fullUrl": "http://localhost:8080/cqf-ruler/baseDstu3/DiagnosticReport/DiagnosticReport-3334",
      "resource": {
        "resourceType": "DiagnosticReport",
        "id": "DiagnosticReport-3334",
        "status": "final",
        "code": {
          "coding": [
            {
              "system": "http://loinc.org",
              "code": "8716-3",
              "display": "Vital Signs Panel"
            }
          ]
        },
        "subject": {
          "reference": "Patient/Patient-6524",
          "display": "Micheal Clarence McKee"
        },
        "context": {
          "reference": "Encounter/Encounter-229",
          "display": "Wellness Visit"
        },
        "effectivePeriod": {
          "start": "1988-02-26T00:00:00-05:00",
          "end": "1988-02-26T00:00:00-05:00"
        },
        "issued": "1988-02-26T00:00:00.000-05:00",
        "result": [
          {
            "reference": "Observation/Observation-3335",
            "display": "Height"
          },
          {
            "reference": "Observation/Observation-3336",
            "display": "Weight"
          },
          {
            "reference": "Observation/Observation-3337",
            "display": "BMI"
          },
          {
            "reference": "Observation/Observation-3338",
            "display": "Temperature"
          },
          {
            "reference": "Observation/Observation-3339",
            "display": "Systolic Blood Pressure"
          },
          {
            "reference": "Observation/Observation-3340",
            "display": "Diastolic Blood Pressure"
          }
        ]
      },
      "request": {
        "method": "PUT",
        "url": "http://localhost:8080/cqf-ruler/baseDstu3/DiagnosticReport/DiagnosticReport-3334"
      }
    }
  ]
}