{
  "resourceType": "Bundle",
  "id": "Becky Trevino Craig-6503-Encounter-1558",
  "type": "transaction",
  "entry": [
    {
      "fullUrl": "http://localhost:8080/cqf-ruler/baseDstu3/Encounter/Encounter-1558",
      "resource": {
        "resourceType": "Encounter",
        "id": "Encounter-1558",
        "status": "finished",
        "class": {
          "system": "http://hl7.org/fhir/encounter-class",
          "code": "outpatient",
          "display": "Inpatient"
        },
        "subject": {
          "reference": "Patient/Patient-6503",
          "display": "Becky Trevino Craig"
        },
        "participant": [
          {
            "period": {
              "start": "2005-02-25T00:00:00-05:00",
              "end": "2005-02-25T00:00:00-05:00"
            },
            "individual": {
              "reference": "Practitioner/Practitioner-2520",
              "display": "Kimberly Christy Ashley MD"
            }
          }
        ],
        "period": {
          "start": "2005-02-25T00:00:00-05:00",
          "end": "2005-02-25T00:00:00-05:00"
        },
        "location": [
          {
            "location": {
              "reference": "Location/Location-1105",
              "display": "Bayside Medical Group"
            }
          }
        ],
        "serviceProvider": {
          "reference": "Organization/Organization-1105",
          "display": "Bayside Medical Group"
        }
      },
      "request": {
        "method": "PUT",
        "url": "http://localhost:8080/cqf-ruler/baseDstu3/Encounter/Encounter-1558"
      }
    },
    {
      "fullUrl": "http://localhost:8080/cqf-ruler/baseDstu3/Immunization/Immunization-319997",
      "resource": {
        "resourceType": "Immunization",
        "id": "Immunization-319997",
        "status": "completed",
        "notGiven": false,
        "vaccineCode": {
          "coding": [
            {
              "system": "http://hl7.org/fhir/sid/cvx",
              "code": "140",
              "display": "Influenza, seasonal, injectable, preservative free"
            }
          ]
        },
        "patient": {
          "reference": "Patient/Patient-6503",
          "display": "Becky Trevino Craig"
        },
        "date": "2005-02-25T00:00:00-05:00",
        "primarySource": true,
        "location": {
          "reference": "Location/Location-1105",
          "display": "Bayside Medical Group"
        },
        "practitioner": [
          {
            "actor": {
              "reference": "Practitioner/Practitioner-2520",
              "display": "Kimberly Christy Ashley MD"
            }
          }
        ]
      },
      "request": {
        "method": "PUT",
        "url": "http://localhost:8080/cqf-ruler/baseDstu3/Immunization/Immunization-319997"
      }
    },
    {
      "fullUrl": "http://localhost:8080/cqf-ruler/baseDstu3/Procedure/Procedure-341393",
      "resource": {
        "resourceType": "Procedure",
        "id": "Procedure-341393",
        "status": "completed",
        "code": {
          "coding": [
            {
              "system": "http://www.ama-assn.org/go/cpt",
              "code": "77066",
              "display": "Diagnostic mammography, including computer-aided detection (CAD) when performed; bilateral"
            }
          ]
        },
        "subject": {
          "reference": "Patient/Patient-6503",
          "display": "Becky Trevino Craig"
        },
        "context": {
          "reference": "Encounter/Encounter-1558",
          "display": "Bayside Medical Group"
        },
        "performedPeriod": {
          "start": "2005-02-25T00:00:00-05:00",
          "end": "2005-02-25T00:00:00-05:00"
        },
        "performer": [
          {
            "actor": {
              "reference": "Practitioner/Practitioner-2520",
              "display": "Kimberly Christy Ashley MD"
            }
          }
        ],
        "location": {
          "reference": "Location/Location-1105",
          "display": "Bayside Medical Group"
        }
      },
      "request": {
        "method": "PUT",
        "url": "http://localhost:8080/cqf-ruler/baseDstu3/Procedure/Procedure-341393"
      }
    },
    {
      "fullUrl": "http://localhost:8080/cqf-ruler/baseDstu3/Observation/Observation-341394",
      "resource": {
        "resourceType": "Observation",
        "id": "Observation-341394",
        "status": "final",
        "code": {
          "coding": [
            {
              "system": "http://snomed.info/sct",
              "code": "168749009",
              "display": "Mammography normal (finding)"
            }
          ]
        },
        "subject": {
          "reference": "Patient/Patient-6503",
          "display": "Becky Trevino Craig"
        },
        "context": {
          "reference": "Encounter/Encounter-1558",
          "display": "Bayside Medical Group"
        },
        "effectivePeriod": {
          "start": "2005-02-25T00:00:00-05:00",
          "end": "2005-02-25T00:00:00-05:00"
        },
        "performer": [
          {
            "reference": "Practitioner/Practitioner-2520",
            "display": "Kimberly Christy Ashley MD"
          }
        ],
        "valueString": "NEGATIVE"
      },
      "request": {
        "method": "PUT",
        "url": "http://localhost:8080/cqf-ruler/baseDstu3/Observation/Observation-341394"
      }
    },
    {
      "fullUrl": "http://localhost:8080/cqf-ruler/baseDstu3/DiagnosticReport/DiagnosticReport-341395",
      "resource": {
        "resourceType": "DiagnosticReport",
        "id": "DiagnosticReport-341395",
        "status": "final",
        "code": {
          "coding": [
            {
              "system": "http://loinc.org",
              "code": "46342-2",
              "display": "Breast FFD mammogram"
            }
          ]
        },
        "subject": {
          "reference": "Patient/Patient-6503",
          "display": "Becky Trevino Craig"
        },
        "context": {
          "reference": "Encounter/Encounter-1558",
          "display": "Bayside Medical Group"
        },
        "effectivePeriod": {
          "start": "2005-02-25T00:00:00-05:00",
          "end": "2005-02-25T00:00:00-05:00"
        },
        "issued": "2005-02-25T00:00:00.000-05:00",
        "result": [
          {
            "reference": "Observation/Observation-341394",
            "display": "No_Cancer_Detected"
          }
        ]
      },
      "request": {
        "method": "PUT",
        "url": "http://localhost:8080/cqf-ruler/baseDstu3/DiagnosticReport/DiagnosticReport-341395"
      }
    },
    {
      "fullUrl": "http://localhost:8080/cqf-ruler/baseDstu3/Observation/Observation-341397",
      "resource": {
        "resourceType": "Observation",
        "id": "Observation-341397",
        "status": "final",
        "code": {
          "coding": [
            {
              "system": "http://loinc.org",
              "code": "8302-2",
              "display": "Height"
            }
          ]
        },
        "subject": {
          "reference": "Patient/Patient-6503",
          "display": "Becky Trevino Craig"
        },
        "context": {
          "reference": "Encounter/Encounter-1558",
          "display": "Bayside Medical Group"
        },
        "effectiveDateTime": "2005-02-25T00:00:00-05:00",
        "performer": [
          {
            "reference": "Practitioner/Practitioner-2520",
            "display": "Kimberly Christy Ashley MD"
          }
        ],
        "valueQuantity": {
          "value": 163.3,
          "unit": "cm"
        }
      },
      "request": {
        "method": "PUT",
        "url": "http://localhost:8080/cqf-ruler/baseDstu3/Observation/Observation-341397"
      }
    },
    {
      "fullUrl": "http://localhost:8080/cqf-ruler/baseDstu3/Observation/Observation-341398",
      "resource": {
        "resourceType": "Observation",
        "id": "Observation-341398",
        "status": "final",
        "code": {
          "coding": [
            {
              "system": "http://loinc.org",
              "code": "29463-7",
              "display": "Weight"
            }
          ]
        },
        "subject": {
          "reference": "Patient/Patient-6503",
          "display": "Becky Trevino Craig"
        },
        "context": {
          "reference": "Encounter/Encounter-1558",
          "display": "Bayside Medical Group"
        },
        "effectiveDateTime": "2005-02-25T00:00:00-05:00",
        "performer": [
          {
            "reference": "Practitioner/Practitioner-2520",
            "display": "Kimberly Christy Ashley MD"
          }
        ],
        "valueQuantity": {
          "value": 94.91030609991734,
          "unit": "kg"
        }
      },
      "request": {
        "method": "PUT",
        "url": "http://localhost:8080/cqf-ruler/baseDstu3/Observation/Observation-341398"
      }
    },
    {
      "fullUrl": "http://localhost:8080/cqf-ruler/baseDstu3/Observation/Observation-341399",
      "resource": {
        "resourceType": "Observation",
        "id": "Observation-341399",
        "status": "final",
        "code": {
          "coding": [
            {
              "system": "http://loinc.org",
              "code": "39156-5",
              "display": "BMI"
            }
          ]
        },
        "subject": {
          "reference": "Patient/Patient-6503",
          "display": "Becky Trevino Craig"
        },
        "context": {
          "reference": "Encounter/Encounter-1558",
          "display": "Bayside Medical Group"
        },
        "effectiveDateTime": "2005-02-25T00:00:00-05:00",
        "performer": [
          {
            "reference": "Practitioner/Practitioner-2520",
            "display": "Kimberly Christy Ashley MD"
          }
        ],
        "valueQuantity": {
          "value": 35.59106671228529,
          "unit": "kg/m2"
        }
      },
      "request": {
        "method": "PUT",
        "url": "http://localhost:8080/cqf-ruler/baseDstu3/Observation/Observation-341399"
      }
    },
    {
      "fullUrl": "http://localhost:8080/cqf-ruler/baseDstu3/Observation/Observation-341400",
      "resource": {
        "resourceType": "Observation",
        "id": "Observation-341400",
        "status": "final",
        "code": {
          "coding": [
            {
              "system": "http://loinc.org",
              "code": "8310-5",
              "display": "Temperature"
            }
          ]
        },
        "subject": {
          "reference": "Patient/Patient-6503",
          "display": "Becky Trevino Craig"
        },
        "context": {
          "reference": "Encounter/Encounter-1558",
          "display": "Bayside Medical Group"
        },
        "effectiveDateTime": "2005-02-25T00:00:00-05:00",
        "performer": [
          {
            "reference": "Practitioner/Practitioner-2520",
            "display": "Kimberly Christy Ashley MD"
          }
        ],
        "valueQuantity": {
          "value": 37.0,
          "unit": "C"
        }
      },
      "request": {
        "method": "PUT",
        "url": "http://localhost:8080/cqf-ruler/baseDstu3/Observation/Observation-341400"
      }
    },
    {
      "fullUrl": "http://localhost:8080/cqf-ruler/baseDstu3/Observation/Observation-341401",
      "resource": {
        "resourceType": "Observation",
        "id": "Observation-341401",
        "status": "final",
        "code": {
          "coding": [
            {
              "system": "http://loinc.org",
              "code": "8459-0",
              "display": "Systolic Blood Pressure"
            }
          ]
        },
        "subject": {
          "reference": "Patient/Patient-6503",
          "display": "Becky Trevino Craig"
        },
        "context": {
          "reference": "Encounter/Encounter-1558",
          "display": "Bayside Medical Group"
        },
        "effectiveDateTime": "2005-02-25T00:00:00-05:00",
        "performer": [
          {
            "reference": "Practitioner/Practitioner-2520",
            "display": "Kimberly Christy Ashley MD"
          }
        ],
        "valueQuantity": {
          "value": 110.98311877920509,
          "unit": "mmHg"
        }
      },
      "request": {
        "method": "PUT",
        "url": "http://localhost:8080/cqf-ruler/baseDstu3/Observation/Observation-341401"
      }
    },
    {
      "fullUrl": "http://localhost:8080/cqf-ruler/baseDstu3/Observation/Observation-341402",
      "resource": {
        "resourceType": "Observation",
        "id": "Observation-341402",
        "status": "final",
        "code": {
          "coding": [
            {
              "system": "http://loinc.org",
              "code": "8453-3",
              "display": "Diastolic Blood Pressure"
            }
          ]
        },
        "subject": {
          "reference": "Patient/Patient-6503",
          "display": "Becky Trevino Craig"
        },
        "context": {
          "reference": "Encounter/Encounter-1558",
          "display": "Bayside Medical Group"
        },
        "effectiveDateTime": "2005-02-25T00:00:00-05:00",
        "performer": [
          {
            "reference": "Practitioner/Practitioner-2520",
            "display": "Kimberly Christy Ashley MD"
          }
        ],
        "valueQuantity": {
          "value": 83.48920277798427,
          "unit": "mmHg"
        }
      },
      "request": {
        "method": "PUT",
        "url": "http://localhost:8080/cqf-ruler/baseDstu3/Observation/Observation-341402"
      }
    },
    {
      "fullUrl": "http://localhost:8080/cqf-ruler/baseDstu3/DiagnosticReport/DiagnosticReport-341396",
      "resource": {
        "resourceType": "DiagnosticReport",
        "id": "DiagnosticReport-341396",
        "status": "final",
        "code": {
          "coding": [
            {
              "system": "http://loinc.org",
              "code": "8716-3",
              "display": "Vital Signs Panel"
            }
          ]
        },
        "subject": {
          "reference": "Patient/Patient-6503",
          "display": "Becky Trevino Craig"
        },
        "context": {
          "reference": "Encounter/Encounter-1558",
          "display": "Bayside Medical Group"
        },
        "effectivePeriod": {
          "start": "2005-02-25T00:00:00-05:00",
          "end": "2005-02-25T00:00:00-05:00"
        },
        "issued": "2005-02-25T00:00:00.000-05:00",
        "result": [
          {
            "reference": "Observation/Observation-341397",
            "display": "Height"
          },
          {
            "reference": "Observation/Observation-341398",
            "display": "Weight"
          },
          {
            "reference": "Observation/Observation-341399",
            "display": "BMI"
          },
          {
            "reference": "Observation/Observation-341400",
            "display": "Temperature"
          },
          {
            "reference": "Observation/Observation-341401",
            "display": "Systolic Blood Pressure"
          },
          {
            "reference": "Observation/Observation-341402",
            "display": "Diastolic Blood Pressure"
          }
        ]
      },
      "request": {
        "method": "PUT",
        "url": "http://localhost:8080/cqf-ruler/baseDstu3/DiagnosticReport/DiagnosticReport-341396"
      }
    }
  ]
}