{
  "resourceType": "Bundle",
  "id": "Becky-Trevino-Craig-6503-Encounter-510",
  "type": "transaction",
  "entry": [
    {
      "fullUrl": "http://localhost:8080/cqf-ruler/baseDstu3Encounter/Encounter-510",
      "resource": {
        "resourceType": "Encounter",
        "id": "Encounter-510",
        "status": "finished",
        "class": {
          "system": "http://hl7.org/fhir/encounter-class",
          "code": "outpatient",
          "display": "Inpatient"
        },
        "subject": {
          "reference": "Patient/Patient-6503",
          "display": "Becky Trevino Craig"
        },
        "participant": [
          {
            "period": {
              "start": "1993-01-22T00:00:00-05:00",
              "end": "1993-01-22T00:00:00-05:00"
            },
            "individual": {
              "reference": "Practitioner/Practitioner-2520",
              "display": "Kimberly Christy Ashley MD"
            }
          }
        ],
        "period": {
          "start": "1993-01-22T00:00:00-05:00",
          "end": "1993-01-22T00:00:00-05:00"
        },
        "location": [
          {
            "location": {
              "reference": "Location/Location-1105",
              "display": "Bayside Medical Group"
            }
          }
        ],
        "serviceProvider": {
          "reference": "Organization/Organization-1105",
          "display": "Bayside Medical Group"
        }
      },
      "request": {
        "method": "PUT",
        "url": "http://localhost:8080/cqf-ruler/baseDstu3Encounter/Encounter-510"
      }
    },
    {
      "fullUrl": "http://localhost:8080/cqf-ruler/baseDstu3Immunization/Immunization-55883",
      "resource": {
        "resourceType": "Immunization",
        "id": "Immunization-55883",
        "status": "completed",
        "notGiven": false,
        "vaccineCode": {
          "coding": [
            {
              "system": "http://hl7.org/fhir/sid/cvx",
              "code": "140",
              "display": "Influenza, seasonal, injectable, preservative free"
            }
          ]
        },
        "patient": {
          "reference": "Patient/Patient-6503",
          "display": "Becky Trevino Craig"
        },
        "date": "1993-01-22T00:00:00-05:00",
        "primarySource": true,
        "location": {
          "reference": "Location/Location-1105",
          "display": "Bayside Medical Group"
        },
        "practitioner": [
          {
            "actor": {
              "reference": "Practitioner/Practitioner-2520",
              "display": "Kimberly Christy Ashley MD"
            }
          }
        ]
      },
      "request": {
        "method": "PUT",
        "url": "http://localhost:8080/cqf-ruler/baseDstu3Immunization/Immunization-55883"
      }
    },
    {
      "fullUrl": "http://localhost:8080/cqf-ruler/baseDstu3Procedure/Procedure-94556",
      "resource": {
        "resourceType": "Procedure",
        "id": "Procedure-94556",
        "status": "completed",
        "code": {
          "coding": [
            {
              "system": "http://www.ama-assn.org/go/cpt",
              "code": "82270",
              "display": "Blood, occult, by peroxidase activity (eg, guaiac), qualitative; feces, consecutive collected specimens with single determination, for colorectal neoplasm screening (ie, patient was provided 3 cards or single triple card for consecutive collection)"
            }
          ]
        },
        "subject": {
          "reference": "Patient/Patient-6503",
          "display": "Becky Trevino Craig"
        },
        "context": {
          "reference": "Encounter/Encounter-510",
          "display": "Wellness Visit"
        },
        "performedPeriod": {
          "start": "1993-01-22T00:00:00-05:00",
          "end": "1993-01-22T00:00:00-05:00"
        },
        "performer": [
          {
            "actor": {
              "reference": "Practitioner/Practitioner-2520",
              "display": "Kimberly Christy Ashley MD"
            }
          }
        ],
        "location": {
          "reference": "Location/Location-1105",
          "display": "Bayside Medical Group"
        }
      },
      "request": {
        "method": "PUT",
        "url": "http://localhost:8080/cqf-ruler/baseDstu3Procedure/Procedure-94556"
      }
    },
    {
      "fullUrl": "http://localhost:8080/cqf-ruler/baseDstu3Observation/Observation-94557",
      "resource": {
        "resourceType": "Observation",
        "id": "Observation-94557",
        "status": "final",
        "code": {
          "coding": [
            {
              "system": "http://www.ama-assn.org/go/cpt",
              "code": "82270",
              "display": "Blood, occult, by peroxidase activity (eg, guaiac), qualitative; feces, consecutive collected specimens with single determination, for colorectal neoplasm screening (ie, patient was provided 3 cards or single triple card for consecutive collection)"
            }
          ]
        },
        "subject": {
          "reference": "Patient/Patient-6503",
          "display": "Becky Trevino Craig"
        },
        "context": {
          "reference": "Encounter/Encounter-510",
          "display": "Wellness Visit"
        },
        "effectivePeriod": {
          "start": "1993-01-22T00:00:00-05:00",
          "end": "1993-01-22T00:00:00-05:00"
        },
        "performer": [
          {
            "reference": "Practitioner/Practitioner-2520",
            "display": "Kimberly Christy Ashley MD"
          }
        ],
        "valueString": "NEGATIVE"
      },
      "request": {
        "method": "PUT",
        "url": "http://localhost:8080/cqf-ruler/baseDstu3Observation/Observation-94557"
      }
    },
    {
      "fullUrl": "http://localhost:8080/cqf-ruler/baseDstu3Procedure/Procedure-94558",
      "resource": {
        "resourceType": "Procedure",
        "id": "Procedure-94558",
        "status": "completed",
        "code": {
          "coding": [
            {
              "system": "http://www.ama-assn.org/go/cpt",
              "code": "77067",
              "display": "Screening mammography, bilateral (2-view study of each breast), including computer-aided detection (CAD) when performed"
            }
          ]
        },
        "subject": {
          "reference": "Patient/Patient-6503",
          "display": "Becky Trevino Craig"
        },
        "context": {
          "reference": "Encounter/Encounter-510",
          "display": "Wellness Visit"
        },
        "performedPeriod": {
          "start": "1993-01-22T00:00:00-05:00",
          "end": "1993-01-22T00:00:00-05:00"
        },
        "performer": [
          {
            "actor": {
              "reference": "Practitioner/Practitioner-2520",
              "display": "Kimberly Christy Ashley MD"
            }
          }
        ],
        "location": {
          "reference": "Location/Location-1105",
          "display": "Bayside Medical Group"
        }
      },
      "request": {
        "method": "PUT",
        "url": "http://localhost:8080/cqf-ruler/baseDstu3Procedure/Procedure-94558"
      }
    },
    {
      "fullUrl": "http://localhost:8080/cqf-ruler/baseDstu3Observation/Observation-94559",
      "resource": {
        "resourceType": "Observation",
        "id": "Observation-94559",
        "status": "final",
        "code": {
          "coding": [
            {
              "system": "http://snomed.info/sct",
              "code": "168749009",
              "display": "Mammography normal (finding)"
            }
          ]
        },
        "subject": {
          "reference": "Patient/Patient-6503",
          "display": "Becky Trevino Craig"
        },
        "context": {
          "reference": "Encounter/Encounter-510",
          "display": "Wellness Visit"
        },
        "effectivePeriod": {
          "start": "1993-01-22T00:00:00-05:00",
          "end": "1993-01-22T00:00:00-05:00"
        },
        "performer": [
          {
            "reference": "Practitioner/Practitioner-2520",
            "display": "Kimberly Christy Ashley MD"
          }
        ],
        "valueString": "NEGATIVE"
      },
      "request": {
        "method": "PUT",
        "url": "http://localhost:8080/cqf-ruler/baseDstu3Observation/Observation-94559"
      }
    },
    {
      "fullUrl": "http://localhost:8080/cqf-ruler/baseDstu3DiagnosticReport/DiagnosticReport-94560",
      "resource": {
        "resourceType": "DiagnosticReport",
        "id": "DiagnosticReport-94560",
        "status": "final",
        "code": {
          "coding": [
            {
              "system": "HCPCS",
              "code": "G0202",
              "display": "Screening mammography, producing direct digital image, bilateral, all views"
            }
          ]
        },
        "subject": {
          "reference": "Patient/Patient-6503",
          "display": "Becky Trevino Craig"
        },
        "context": {
          "reference": "Encounter/Encounter-510",
          "display": "Wellness Visit"
        },
        "effectivePeriod": {
          "start": "1993-01-22T00:00:00-05:00",
          "end": "1993-01-22T00:00:00-05:00"
        },
        "issued": "1993-01-22T00:00:00.000-05:00",
        "result": [
          {
            "reference": "Observation/Observation-94559",
            "display": "No_Cancer_Detected"
          }
        ]
      },
      "request": {
        "method": "PUT",
        "url": "http://localhost:8080/cqf-ruler/baseDstu3DiagnosticReport/DiagnosticReport-94560"
      }
    },
    {
      "fullUrl": "http://localhost:8080/cqf-ruler/baseDstu3Procedure/Procedure-94561",
      "resource": {
        "resourceType": "Procedure",
        "id": "Procedure-94561",
        "status": "completed",
        "code": {
          "coding": [
            {
              "system": "http://www.ama-assn.org/go/cpt",
              "code": "87625",
              "display": "Infectious agent detection by nucleic acid (DNA or RNA); Human Papillomavirus (HPV), types 16 and 18 only, includes type 45, if performed"
            }
          ]
        },
        "subject": {
          "reference": "Patient/Patient-6503",
          "display": "Becky Trevino Craig"
        },
        "context": {
          "reference": "Encounter/Encounter-510",
          "display": "Wellness Visit"
        },
        "performedPeriod": {
          "start": "1993-01-22T00:00:00-05:00",
          "end": "1993-01-22T00:00:00-05:00"
        },
        "performer": [
          {
            "actor": {
              "reference": "Practitioner/Practitioner-2520",
              "display": "Kimberly Christy Ashley MD"
            }
          }
        ],
        "location": {
          "reference": "Location/Location-1105",
          "display": "Bayside Medical Group"
        }
      },
      "request": {
        "method": "PUT",
        "url": "http://localhost:8080/cqf-ruler/baseDstu3Procedure/Procedure-94561"
      }
    },
    {
      "fullUrl": "http://localhost:8080/cqf-ruler/baseDstu3Observation/Observation-94562",
      "resource": {
        "resourceType": "Observation",
        "id": "Observation-94562",
        "status": "final",
        "code": {
          "coding": [
            {
              "system": "http://snomed.info/sct",
              "code": "289829007",
              "display": "Normal uterine cervix (finding)"
            }
          ]
        },
        "subject": {
          "reference": "Patient/Patient-6503",
          "display": "Becky Trevino Craig"
        },
        "context": {
          "reference": "Encounter/Encounter-510",
          "display": "Wellness Visit"
        },
        "effectivePeriod": {
          "start": "1993-01-22T00:00:00-05:00",
          "end": "1993-01-22T00:00:00-05:00"
        },
        "performer": [
          {
            "reference": "Practitioner/Practitioner-2520",
            "display": "Kimberly Christy Ashley MD"
          }
        ],
        "valueString": "NEGATIVE"
      },
      "request": {
        "method": "PUT",
        "url": "http://localhost:8080/cqf-ruler/baseDstu3Observation/Observation-94562"
      }
    },
    {
      "fullUrl": "http://localhost:8080/cqf-ruler/baseDstu3DiagnosticReport/DiagnosticReport-94563",
      "resource": {
        "resourceType": "DiagnosticReport",
        "id": "DiagnosticReport-94563",
        "status": "final",
        "code": {
          "coding": [
            {
              "system": "http://loinc.org",
              "code": "19766-5",
              "display": "Microscopic observation [Identifier] in Cervical or vaginal smear or scraping by Cyto stain Narrative"
            }
          ]
        },
        "subject": {
          "reference": "Patient/Patient-6503",
          "display": "Becky Trevino Craig"
        },
        "context": {
          "reference": "Encounter/Encounter-510",
          "display": "Wellness Visit"
        },
        "effectivePeriod": {
          "start": "1993-01-22T00:00:00-05:00",
          "end": "1993-01-22T00:00:00-05:00"
        },
        "issued": "1993-01-22T00:00:00.000-05:00",
        "result": [
          {
            "reference": "Observation/Observation-94562",
            "display": "No_Cancer_Detected"
          }
        ]
      },
      "request": {
        "method": "PUT",
        "url": "http://localhost:8080/cqf-ruler/baseDstu3DiagnosticReport/DiagnosticReport-94563"
      }
    },
    {
      "fullUrl": "http://localhost:8080/cqf-ruler/baseDstu3Observation/Observation-94565",
      "resource": {
        "resourceType": "Observation",
        "id": "Observation-94565",
        "status": "final",
        "code": {
          "coding": [
            {
              "system": "http://loinc.org",
              "code": "8302-2",
              "display": "Height"
            }
          ]
        },
        "subject": {
          "reference": "Patient/Patient-6503",
          "display": "Becky Trevino Craig"
        },
        "context": {
          "reference": "Encounter/Encounter-510",
          "display": "Wellness Visit"
        },
        "effectiveDateTime": "1993-01-22T00:00:00-05:00",
        "performer": [
          {
            "reference": "Practitioner/Practitioner-2520",
            "display": "Kimberly Christy Ashley MD"
          }
        ],
        "valueQuantity": {
          "value": 167.7,
          "unit": "cm"
        }
      },
      "request": {
        "method": "PUT",
        "url": "http://localhost:8080/cqf-ruler/baseDstu3Observation/Observation-94565"
      }
    },
    {
      "fullUrl": "http://localhost:8080/cqf-ruler/baseDstu3Observation/Observation-94566",
      "resource": {
        "resourceType": "Observation",
        "id": "Observation-94566",
        "status": "final",
        "code": {
          "coding": [
            {
              "system": "http://loinc.org",
              "code": "29463-7",
              "display": "Weight"
            }
          ]
        },
        "subject": {
          "reference": "Patient/Patient-6503",
          "display": "Becky Trevino Craig"
        },
        "context": {
          "reference": "Encounter/Encounter-510",
          "display": "Wellness Visit"
        },
        "effectiveDateTime": "1993-01-22T00:00:00-05:00",
        "performer": [
          {
            "reference": "Practitioner/Practitioner-2520",
            "display": "Kimberly Christy Ashley MD"
          }
        ],
        "valueQuantity": {
          "value": 100.34214678866714,
          "unit": "kg"
        }
      },
      "request": {
        "method": "PUT",
        "url": "http://localhost:8080/cqf-ruler/baseDstu3Observation/Observation-94566"
      }
    },
    {
      "fullUrl": "http://localhost:8080/cqf-ruler/baseDstu3Observation/Observation-94567",
      "resource": {
        "resourceType": "Observation",
        "id": "Observation-94567",
        "status": "final",
        "code": {
          "coding": [
            {
              "system": "http://loinc.org",
              "code": "39156-5",
              "display": "BMI"
            }
          ]
        },
        "subject": {
          "reference": "Patient/Patient-6503",
          "display": "Becky Trevino Craig"
        },
        "context": {
          "reference": "Encounter/Encounter-510",
          "display": "Wellness Visit"
        },
        "effectiveDateTime": "1993-01-22T00:00:00-05:00",
        "performer": [
          {
            "reference": "Practitioner/Practitioner-2520",
            "display": "Kimberly Christy Ashley MD"
          }
        ],
        "valueQuantity": {
          "value": 35.679377053206494,
          "unit": "kg/m2"
        }
      },
      "request": {
        "method": "PUT",
        "url": "http://localhost:8080/cqf-ruler/baseDstu3Observation/Observation-94567"
      }
    },
    {
      "fullUrl": "http://localhost:8080/cqf-ruler/baseDstu3Observation/Observation-94568",
      "resource": {
        "resourceType": "Observation",
        "id": "Observation-94568",
        "status": "final",
        "code": {
          "coding": [
            {
              "system": "http://loinc.org",
              "code": "8310-5",
              "display": "Temperature"
            }
          ]
        },
        "subject": {
          "reference": "Patient/Patient-6503",
          "display": "Becky Trevino Craig"
        },
        "context": {
          "reference": "Encounter/Encounter-510",
          "display": "Wellness Visit"
        },
        "effectiveDateTime": "1993-01-22T00:00:00-05:00",
        "performer": [
          {
            "reference": "Practitioner/Practitioner-2520",
            "display": "Kimberly Christy Ashley MD"
          }
        ],
        "valueQuantity": {
          "value": 37.0,
          "unit": "C"
        }
      },
      "request": {
        "method": "PUT",
        "url": "http://localhost:8080/cqf-ruler/baseDstu3Observation/Observation-94568"
      }
    },
    {
      "fullUrl": "http://localhost:8080/cqf-ruler/baseDstu3Observation/Observation-94569",
      "resource": {
        "resourceType": "Observation",
        "id": "Observation-94569",
        "status": "final",
        "code": {
          "coding": [
            {
              "system": "http://loinc.org",
              "code": "8459-0",
              "display": "Systolic Blood Pressure"
            }
          ]
        },
        "subject": {
          "reference": "Patient/Patient-6503",
          "display": "Becky Trevino Craig"
        },
        "context": {
          "reference": "Encounter/Encounter-510",
          "display": "Wellness Visit"
        },
        "effectiveDateTime": "1993-01-22T00:00:00-05:00",
        "performer": [
          {
            "reference": "Practitioner/Practitioner-2520",
            "display": "Kimberly Christy Ashley MD"
          }
        ],
        "valueQuantity": {
          "value": 130.23098020827976,
          "unit": "mmHg"
        }
      },
      "request": {
        "method": "PUT",
        "url": "http://localhost:8080/cqf-ruler/baseDstu3Observation/Observation-94569"
      }
    },
    {
      "fullUrl": "http://localhost:8080/cqf-ruler/baseDstu3Observation/Observation-94570",
      "resource": {
        "resourceType": "Observation",
        "id": "Observation-94570",
        "status": "final",
        "code": {
          "coding": [
            {
              "system": "http://loinc.org",
              "code": "8453-3",
              "display": "Diastolic Blood Pressure"
            }
          ]
        },
        "subject": {
          "reference": "Patient/Patient-6503",
          "display": "Becky Trevino Craig"
        },
        "context": {
          "reference": "Encounter/Encounter-510",
          "display": "Wellness Visit"
        },
        "effectiveDateTime": "1993-01-22T00:00:00-05:00",
        "performer": [
          {
            "reference": "Practitioner/Practitioner-2520",
            "display": "Kimberly Christy Ashley MD"
          }
        ],
        "valueQuantity": {
          "value": 75.8835295134151,
          "unit": "mmHg"
        }
      },
      "request": {
        "method": "PUT",
        "url": "http://localhost:8080/cqf-ruler/baseDstu3Observation/Observation-94570"
      }
    },
    {
      "fullUrl": "http://localhost:8080/cqf-ruler/baseDstu3DiagnosticReport/DiagnosticReport-94564",
      "resource": {
        "resourceType": "DiagnosticReport",
        "id": "DiagnosticReport-94564",
        "status": "final",
        "code": {
          "coding": [
            {
              "system": "http://loinc.org",
              "code": "8716-3",
              "display": "Vital Signs Panel"
            }
          ]
        },
        "subject": {
          "reference": "Patient/Patient-6503",
          "display": "Becky Trevino Craig"
        },
        "context": {
          "reference": "Encounter/Encounter-510",
          "display": "Wellness Visit"
        },
        "effectivePeriod": {
          "start": "1993-01-22T00:00:00-05:00",
          "end": "1993-01-22T00:00:00-05:00"
        },
        "issued": "1993-01-22T00:00:00.000-05:00",
        "result": [
          {
            "reference": "Observation/Observation-94565",
            "display": "Height"
          },
          {
            "reference": "Observation/Observation-94566",
            "display": "Weight"
          },
          {
            "reference": "Observation/Observation-94567",
            "display": "BMI"
          },
          {
            "reference": "Observation/Observation-94568",
            "display": "Temperature"
          },
          {
            "reference": "Observation/Observation-94569",
            "display": "Systolic Blood Pressure"
          },
          {
            "reference": "Observation/Observation-94570",
            "display": "Diastolic Blood Pressure"
          }
        ]
      },
      "request": {
        "method": "PUT",
        "url": "http://localhost:8080/cqf-ruler/baseDstu3DiagnosticReport/DiagnosticReport-94564"
      }
    }
  ]
}