{
  "resourceType": "Bundle",
  "id": "Elise-Louise-Paulson-1127-Encounter-4374",
  "type": "transaction",
  "entry": [
    {
      "fullUrl": "http://localhost:8080/cqf-ruler/baseDstu3/Encounter/Encounter-4374",
      "resource": {
        "resourceType": "Encounter",
        "id": "Encounter-4374",
        "meta": {
          "profile": [
            "http://hl7.org/fhir/us/hedis/StructureDefinition/hedis-encounter"
          ]
        },
        "status": "finished",
        "class": {
          "system": "http://hl7.org/fhir/encounter-class",
          "code": "outpatient",
          "display": "Outpatient"
        },
        "type": [
          {
            "coding": [
              {
                "system": "https://www.cms.gov/Medicare/Coding/MedHCPCSGenInfo",
                "code": "H2019",
                "display": "Therapeutic behavioral services, per 15 minutes (H2019)"
              }
            ]
          }
        ],
        "subject": {
          "reference": "Patient/Patient-1127",
          "display": "Elise Louise Paulson"
        },
        "participant": [
          {
            "period": {
              "start": "2017-10-06T01:00:00-04:00",
              "end": "2017-10-06T01:00:00-04:00"
            },
            "individual": {
              "reference": "Practitioner/Practitioner-2523",
              "display": "Dean Andrew Davis MD"
            }
          }
        ],
        "period": {
          "start": "2017-10-06T01:00:00-04:00",
          "end": "2017-10-06T01:00:00-04:00"
        },
        "reason": [
          {
            "coding": [
              {
                "system": "http://snomed.info/sct",
                "code": "310495003",
                "display": "Mild depression (disorder)"
              }
            ]
          }
        ],
        "location": [
          {
            "location": {
              "reference": "Location/Location-1102",
              "display": "Pediatric and Adult Medicine"
            }
          }
        ],
        "serviceProvider": {
          "reference": "Organization/Organization-1102",
          "display": "Pediatric and Adult Medicine"
        }
      },
      "request": {
        "method": "PUT",
        "url": "http://localhost:8080/cqf-ruler/baseDstu3/Encounter/Encounter-4374"
      }
    },
    {
      "fullUrl": "http://localhost:8080/cqf-ruler/baseDstu3/Procedure/Procedure-693336",
      "resource": {
        "resourceType": "Procedure",
        "id": "Procedure-693336",
        "meta": {
          "profile": [
            "http://hl7.org/fhir/us/hedis/StructureDefinition/hedis-procedure"
          ]
        },
        "status": "completed",
        "code": {
          "coding": [
            {
              "system": "http://test",
              "code": "2.16.840.1.113883.3.67.1.101.11.723",
              "display": "2.16.840.1.113883.3.67.1.101.11.723"
            }
          ]
        },
        "subject": {
          "reference": "Patient/Patient-1127",
          "display": "Elise Louise Paulson"
        },
        "context": {
          "reference": "Encounter/Encounter-4374",
          "display": "DRR_Encounter"
        },
        "performedPeriod": {
          "start": "2017-10-06T01:00:00-04:00",
          "end": "2017-10-06T01:00:00-04:00"
        },
        "performer": [
          {
            "actor": {
              "reference": "Practitioner/Practitioner-2523",
              "display": "Dean Andrew Davis MD"
            }
          }
        ],
        "location": {
          "reference": "Location/Location-1102",
          "display": "Pediatric and Adult Medicine"
        }
      },
      "request": {
        "method": "PUT",
        "url": "http://localhost:8080/cqf-ruler/baseDstu3/Procedure/Procedure-693336"
      }
    },
    {
      "fullUrl": "http://localhost:8080/cqf-ruler/baseDstu3/Observation/Observation-693337",
      "resource": {
        "resourceType": "Observation",
        "id": "Observation-693337",
        "meta": {
          "profile": [
            "http://hl7.org/fhir/us/hedis/StructureDefinition/hedis-observation"
          ]
        },
        "status": "final",
        "code": {
          "coding": [
            {
              "system": "http://cqframework.info/codesystem/placeholder",
              "code": "00009",
              "display": "PHQ-9 Modified Score"
            }
          ]
        },
        "subject": {
          "reference": "Patient/Patient-1127",
          "display": "Elise Louise Paulson"
        },
        "context": {
          "reference": "Encounter/Encounter-4374",
          "display": "DRR_Encounter"
        },
        "effectiveDateTime": "2017-10-06T01:00:00-04:00",
        "performer": [
          {
            "reference": "Practitioner/Practitioner-2523",
            "display": "Dean Andrew Davis MD"
          }
        ],
        "valueQuantity": {
          "value": 0.0,
          "unit": "score"
        }
      },
      "request": {
        "method": "PUT",
        "url": "http://localhost:8080/cqf-ruler/baseDstu3/Observation/Observation-693337"
      }
    },
    {
      "fullUrl": "http://localhost:8080/cqf-ruler/baseDstu3/DiagnosticReport/DiagnosticReport-693338",
      "resource": {
        "resourceType": "DiagnosticReport",
        "id": "DiagnosticReport-693338",
        "meta": {
          "profile": [
            "http://hl7.org/fhir/us/hedis/StructureDefinition/hedis-diagnosticreport"
          ]
        },
        "status": "final",
        "category": {
          "coding": [
            {
              "system": "http://hl7.org/fhir/ValueSet/diagnostic-service-sections",
              "code": "OTH",
              "display": "Other"
            }
          ]
        },
        "code": {
          "coding": [
            {
              "system": "http://snomed.info/sct",
              "code": "15193003",
              "display": "Severe recurrent major depression with psychotic features, mood-incongruent (disorder)"
            }
          ]
        },
        "subject": {
          "reference": "Patient/Patient-1127",
          "display": "Elise Louise Paulson"
        },
        "context": {
          "reference": "Encounter/Encounter-4374",
          "display": "DRR_Encounter"
        },
        "effectivePeriod": {
          "start": "2017-10-06T01:00:00-04:00",
          "end": "2017-10-06T01:00:00-04:00"
        },
        "issued": "2017-10-06T01:00:00.000-04:00"
      },
      "request": {
        "method": "PUT",
        "url": "http://localhost:8080/cqf-ruler/baseDstu3/DiagnosticReport/DiagnosticReport-693338"
      }
    },
    {
      "fullUrl": "http://localhost:8080/cqf-ruler/baseDstu3/Observation/Observation-693341",
      "resource": {
        "resourceType": "Observation",
        "id": "Observation-693341",
        "status": "final",
        "code": {
          "coding": [
            {
              "system": "http://loinc.org",
              "code": "8302-2",
              "display": "Height"
            }
          ]
        },
        "subject": {
          "reference": "Patient/Patient-1127",
          "display": "Elise Louise Paulson"
        },
        "context": {
          "reference": "Encounter/Encounter-4374",
          "display": "DRR_Encounter"
        },
        "effectiveDateTime": "2017-10-06T01:00:00-04:00",
        "performer": [
          {
            "reference": "Practitioner/Practitioner-2523",
            "display": "Dean Andrew Davis MD"
          }
        ],
        "valueQuantity": {
          "value": 131.4,
          "unit": "cm"
        }
      },
      "request": {
        "method": "PUT",
        "url": "http://localhost:8080/cqf-ruler/baseDstu3/Observation/Observation-693341"
      }
    },
    {
      "fullUrl": "http://localhost:8080/cqf-ruler/baseDstu3/Observation/Observation-693342",
      "resource": {
        "resourceType": "Observation",
        "id": "Observation-693342",
        "status": "final",
        "code": {
          "coding": [
            {
              "system": "http://loinc.org",
              "code": "29463-7",
              "display": "Weight"
            }
          ]
        },
        "subject": {
          "reference": "Patient/Patient-1127",
          "display": "Elise Louise Paulson"
        },
        "context": {
          "reference": "Encounter/Encounter-4374",
          "display": "DRR_Encounter"
        },
        "effectiveDateTime": "2017-10-06T01:00:00-04:00",
        "performer": [
          {
            "reference": "Practitioner/Practitioner-2523",
            "display": "Dean Andrew Davis MD"
          }
        ],
        "valueQuantity": {
          "value": 31.8,
          "unit": "kg"
        }
      },
      "request": {
        "method": "PUT",
        "url": "http://localhost:8080/cqf-ruler/baseDstu3/Observation/Observation-693342"
      }
    },
    {
      "fullUrl": "http://localhost:8080/cqf-ruler/baseDstu3/Observation/Observation-693343",
      "resource": {
        "resourceType": "Observation",
        "id": "Observation-693343",
        "status": "final",
        "code": {
          "coding": [
            {
              "system": "http://loinc.org",
              "code": "39156-5",
              "display": "BMI"
            }
          ]
        },
        "subject": {
          "reference": "Patient/Patient-1127",
          "display": "Elise Louise Paulson"
        },
        "context": {
          "reference": "Encounter/Encounter-4374",
          "display": "DRR_Encounter"
        },
        "effectiveDateTime": "2017-10-06T01:00:00-04:00",
        "performer": [
          {
            "reference": "Practitioner/Practitioner-2523",
            "display": "Dean Andrew Davis MD"
          }
        ],
        "valueQuantity": {
          "value": 18.41774219330984,
          "unit": "kg/m2"
        }
      },
      "request": {
        "method": "PUT",
        "url": "http://localhost:8080/cqf-ruler/baseDstu3/Observation/Observation-693343"
      }
    },
    {
      "fullUrl": "http://localhost:8080/cqf-ruler/baseDstu3/Observation/Observation-693344",
      "resource": {
        "resourceType": "Observation",
        "id": "Observation-693344",
        "status": "final",
        "code": {
          "coding": [
            {
              "system": "http://loinc.org",
              "code": "8310-5",
              "display": "Temperature"
            }
          ]
        },
        "subject": {
          "reference": "Patient/Patient-1127",
          "display": "Elise Louise Paulson"
        },
        "context": {
          "reference": "Encounter/Encounter-4374",
          "display": "DRR_Encounter"
        },
        "effectiveDateTime": "2017-10-06T01:00:00-04:00",
        "performer": [
          {
            "reference": "Practitioner/Practitioner-2523",
            "display": "Dean Andrew Davis MD"
          }
        ],
        "valueQuantity": {
          "value": 37.0,
          "unit": "C"
        }
      },
      "request": {
        "method": "PUT",
        "url": "http://localhost:8080/cqf-ruler/baseDstu3/Observation/Observation-693344"
      }
    },
    {
      "fullUrl": "http://localhost:8080/cqf-ruler/baseDstu3/Observation/Observation-693345",
      "resource": {
        "resourceType": "Observation",
        "id": "Observation-693345",
        "status": "final",
        "code": {
          "coding": [
            {
              "system": "http://loinc.org",
              "code": "8459-0",
              "display": "Systolic Blood Pressure"
            }
          ]
        },
        "subject": {
          "reference": "Patient/Patient-1127",
          "display": "Elise Louise Paulson"
        },
        "context": {
          "reference": "Encounter/Encounter-4374",
          "display": "DRR_Encounter"
        },
        "effectiveDateTime": "2017-10-06T01:00:00-04:00",
        "performer": [
          {
            "reference": "Practitioner/Practitioner-2523",
            "display": "Dean Andrew Davis MD"
          }
        ],
        "valueQuantity": {
          "value": 115.9997472560522,
          "unit": "mmHg"
        }
      },
      "request": {
        "method": "PUT",
        "url": "http://localhost:8080/cqf-ruler/baseDstu3/Observation/Observation-693345"
      }
    },
    {
      "fullUrl": "http://localhost:8080/cqf-ruler/baseDstu3/Observation/Observation-693346",
      "resource": {
        "resourceType": "Observation",
        "id": "Observation-693346",
        "status": "final",
        "code": {
          "coding": [
            {
              "system": "http://loinc.org",
              "code": "8453-3",
              "display": "Diastolic Blood Pressure"
            }
          ]
        },
        "subject": {
          "reference": "Patient/Patient-1127",
          "display": "Elise Louise Paulson"
        },
        "context": {
          "reference": "Encounter/Encounter-4374",
          "display": "DRR_Encounter"
        },
        "effectiveDateTime": "2017-10-06T01:00:00-04:00",
        "performer": [
          {
            "reference": "Practitioner/Practitioner-2523",
            "display": "Dean Andrew Davis MD"
          }
        ],
        "valueQuantity": {
          "value": 105.24267659669934,
          "unit": "mmHg"
        }
      },
      "request": {
        "method": "PUT",
        "url": "http://localhost:8080/cqf-ruler/baseDstu3/Observation/Observation-693346"
      }
    },
    {
      "fullUrl": "http://localhost:8080/cqf-ruler/baseDstu3/DiagnosticReport/DiagnosticReport-693340",
      "resource": {
        "resourceType": "DiagnosticReport",
        "id": "DiagnosticReport-693340",
        "meta": {
          "profile": [
            "http://hl7.org/fhir/us/hedis/StructureDefinition/hedis-diagnosticreport"
          ]
        },
        "status": "final",
        "category": {
          "coding": [
            {
              "system": "http://hl7.org/fhir/ValueSet/diagnostic-service-sections",
              "code": "LAB",
              "display": "Laboratory"
            }
          ]
        },
        "code": {
          "coding": [
            {
              "system": "http://loinc.org",
              "code": "8716-3",
              "display": "Vital Signs Panel"
            }
          ]
        },
        "subject": {
          "reference": "Patient/Patient-1127",
          "display": "Elise Louise Paulson"
        },
        "context": {
          "reference": "Encounter/Encounter-4374",
          "display": "DRR_Encounter"
        },
        "effectivePeriod": {
          "start": "2017-10-06T01:00:00-04:00",
          "end": "2017-10-06T01:00:00-04:00"
        },
        "issued": "2017-10-06T01:00:00.000-04:00",
        "result": [
          {
            "reference": "Observation/Observation-693341",
            "display": "Height"
          },
          {
            "reference": "Observation/Observation-693342",
            "display": "Weight"
          },
          {
            "reference": "Observation/Observation-693343",
            "display": "BMI"
          },
          {
            "reference": "Observation/Observation-693344",
            "display": "Temperature"
          },
          {
            "reference": "Observation/Observation-693345",
            "display": "Systolic Blood Pressure"
          },
          {
            "reference": "Observation/Observation-693346",
            "display": "Diastolic Blood Pressure"
          }
        ]
      },
      "request": {
        "method": "PUT",
        "url": "http://localhost:8080/cqf-ruler/baseDstu3/DiagnosticReport/DiagnosticReport-693340"
      }
    }
  ]
}