{
  "resourceType": "Bundle",
  "id": "Elise-Louise-Paulson-1127-Encounter-1875",
  "type": "transaction",
  "entry": [
    {
      "fullUrl": "http://localhost:8080/cqf-ruler/baseDstu3Encounter/Encounter-1875",
      "resource": {
        "resourceType": "Encounter",
        "id": "Encounter-1875",
        "status": "finished",
        "class": {
          "system": "http://hl7.org/fhir/encounter-class",
          "code": "outpatient",
          "display": "Inpatient"
        },
        "subject": {
          "reference": "Patient/Patient-1127",
          "display": "Elise Louise Paulson"
        },
        "participant": [
          {
            "period": {
              "start": "2008-05-25T23:00:00-04:00",
              "end": "2008-05-25T23:00:00-04:00"
            },
            "individual": {
              "reference": "Practitioner/Practitioner-2523",
              "display": "Dean Andrew Davis MD"
            }
          }
        ],
        "period": {
          "start": "2008-05-25T23:00:00-04:00",
          "end": "2008-05-25T23:00:00-04:00"
        },
        "location": [
          {
            "location": {
              "reference": "Location/Location-1102",
              "display": "Pediatric and Adult Medicine"
            }
          }
        ],
        "serviceProvider": {
          "reference": "Organization/Organization-1102",
          "display": "Pediatric and Adult Medicine"
        }
      },
      "request": {
        "method": "PUT",
        "url": "http://localhost:8080/cqf-ruler/baseDstu3Encounter/Encounter-1875"
      }
    },
    {
      "fullUrl": "http://localhost:8080/cqf-ruler/baseDstu3Observation/Observation-412050",
      "resource": {
        "resourceType": "Observation",
        "id": "Observation-412050",
        "status": "final",
        "code": {
          "coding": [
            {
              "system": "http://loinc.org",
              "code": "8302-2",
              "display": "Height"
            }
          ]
        },
        "subject": {
          "reference": "Patient/Patient-1127",
          "display": "Elise Louise Paulson"
        },
        "context": {
          "reference": "Encounter/Encounter-1875",
          "display": "Wellness Visit"
        },
        "effectiveDateTime": "2008-05-25T23:00:00-04:00",
        "performer": [
          {
            "reference": "Practitioner/Practitioner-2523",
            "display": "Dean Andrew Davis MD"
          }
        ],
        "valueQuantity": {
          "value": 0.0,
          "unit": "cm"
        }
      },
      "request": {
        "method": "PUT",
        "url": "http://localhost:8080/cqf-ruler/baseDstu3Observation/Observation-412050"
      }
    },
    {
      "fullUrl": "http://localhost:8080/cqf-ruler/baseDstu3Observation/Observation-412051",
      "resource": {
        "resourceType": "Observation",
        "id": "Observation-412051",
        "status": "final",
        "code": {
          "coding": [
            {
              "system": "http://loinc.org",
              "code": "29463-7",
              "display": "Weight"
            }
          ]
        },
        "subject": {
          "reference": "Patient/Patient-1127",
          "display": "Elise Louise Paulson"
        },
        "context": {
          "reference": "Encounter/Encounter-1875",
          "display": "Wellness Visit"
        },
        "effectiveDateTime": "2008-05-25T23:00:00-04:00",
        "performer": [
          {
            "reference": "Practitioner/Practitioner-2523",
            "display": "Dean Andrew Davis MD"
          }
        ],
        "valueQuantity": {
          "value": 0.0,
          "unit": "kg"
        }
      },
      "request": {
        "method": "PUT",
        "url": "http://localhost:8080/cqf-ruler/baseDstu3Observation/Observation-412051"
      }
    },
    {
      "fullUrl": "http://localhost:8080/cqf-ruler/baseDstu3Observation/Observation-412052",
      "resource": {
        "resourceType": "Observation",
        "id": "Observation-412052",
        "status": "final",
        "code": {
          "coding": [
            {
              "system": "http://loinc.org",
              "code": "39156-5",
              "display": "BMI"
            }
          ]
        },
        "subject": {
          "reference": "Patient/Patient-1127",
          "display": "Elise Louise Paulson"
        },
        "context": {
          "reference": "Encounter/Encounter-1875",
          "display": "Wellness Visit"
        },
        "effectiveDateTime": "2008-05-25T23:00:00-04:00",
        "performer": [
          {
            "reference": "Practitioner/Practitioner-2523",
            "display": "Dean Andrew Davis MD"
          }
        ],
        "valueQuantity": {
          "value": 0.0,
          "unit": "kg/m2"
        }
      },
      "request": {
        "method": "PUT",
        "url": "http://localhost:8080/cqf-ruler/baseDstu3Observation/Observation-412052"
      }
    },
    {
      "fullUrl": "http://localhost:8080/cqf-ruler/baseDstu3Observation/Observation-412053",
      "resource": {
        "resourceType": "Observation",
        "id": "Observation-412053",
        "status": "final",
        "code": {
          "coding": [
            {
              "system": "http://loinc.org",
              "code": "8310-5",
              "display": "Temperature"
            }
          ]
        },
        "subject": {
          "reference": "Patient/Patient-1127",
          "display": "Elise Louise Paulson"
        },
        "context": {
          "reference": "Encounter/Encounter-1875",
          "display": "Wellness Visit"
        },
        "effectiveDateTime": "2008-05-25T23:00:00-04:00",
        "performer": [
          {
            "reference": "Practitioner/Practitioner-2523",
            "display": "Dean Andrew Davis MD"
          }
        ],
        "valueQuantity": {
          "value": 37.0,
          "unit": "C"
        }
      },
      "request": {
        "method": "PUT",
        "url": "http://localhost:8080/cqf-ruler/baseDstu3Observation/Observation-412053"
      }
    },
    {
      "fullUrl": "http://localhost:8080/cqf-ruler/baseDstu3Observation/Observation-412054",
      "resource": {
        "resourceType": "Observation",
        "id": "Observation-412054",
        "status": "final",
        "code": {
          "coding": [
            {
              "system": "http://loinc.org",
              "code": "8459-0",
              "display": "Systolic Blood Pressure"
            }
          ]
        },
        "subject": {
          "reference": "Patient/Patient-1127",
          "display": "Elise Louise Paulson"
        },
        "context": {
          "reference": "Encounter/Encounter-1875",
          "display": "Wellness Visit"
        },
        "effectiveDateTime": "2008-05-25T23:00:00-04:00",
        "performer": [
          {
            "reference": "Practitioner/Practitioner-2523",
            "display": "Dean Andrew Davis MD"
          }
        ],
        "valueQuantity": {
          "value": 114.2164570013312,
          "unit": "mmHg"
        }
      },
      "request": {
        "method": "PUT",
        "url": "http://localhost:8080/cqf-ruler/baseDstu3Observation/Observation-412054"
      }
    },
    {
      "fullUrl": "http://localhost:8080/cqf-ruler/baseDstu3Observation/Observation-412055",
      "resource": {
        "resourceType": "Observation",
        "id": "Observation-412055",
        "status": "final",
        "code": {
          "coding": [
            {
              "system": "http://loinc.org",
              "code": "8453-3",
              "display": "Diastolic Blood Pressure"
            }
          ]
        },
        "subject": {
          "reference": "Patient/Patient-1127",
          "display": "Elise Louise Paulson"
        },
        "context": {
          "reference": "Encounter/Encounter-1875",
          "display": "Wellness Visit"
        },
        "effectiveDateTime": "2008-05-25T23:00:00-04:00",
        "performer": [
          {
            "reference": "Practitioner/Practitioner-2523",
            "display": "Dean Andrew Davis MD"
          }
        ],
        "valueQuantity": {
          "value": 85.04233653108176,
          "unit": "mmHg"
        }
      },
      "request": {
        "method": "PUT",
        "url": "http://localhost:8080/cqf-ruler/baseDstu3Observation/Observation-412055"
      }
    },
    {
      "fullUrl": "http://localhost:8080/cqf-ruler/baseDstu3DiagnosticReport/DiagnosticReport-412049",
      "resource": {
        "resourceType": "DiagnosticReport",
        "id": "DiagnosticReport-412049",
        "status": "final",
        "code": {
          "coding": [
            {
              "system": "http://loinc.org",
              "code": "8716-3",
              "display": "Vital Signs Panel"
            }
          ]
        },
        "subject": {
          "reference": "Patient/Patient-1127",
          "display": "Elise Louise Paulson"
        },
        "context": {
          "reference": "Encounter/Encounter-1875",
          "display": "Wellness Visit"
        },
        "effectivePeriod": {
          "start": "2008-05-25T23:00:00-04:00",
          "end": "2008-05-25T23:00:00-04:00"
        },
        "issued": "2008-05-25T23:00:00.000-04:00",
        "result": [
          {
            "reference": "Observation/Observation-412050",
            "display": "Height"
          },
          {
            "reference": "Observation/Observation-412051",
            "display": "Weight"
          },
          {
            "reference": "Observation/Observation-412052",
            "display": "BMI"
          },
          {
            "reference": "Observation/Observation-412053",
            "display": "Temperature"
          },
          {
            "reference": "Observation/Observation-412054",
            "display": "Systolic Blood Pressure"
          },
          {
            "reference": "Observation/Observation-412055",
            "display": "Diastolic Blood Pressure"
          }
        ]
      },
      "request": {
        "method": "PUT",
        "url": "http://localhost:8080/cqf-ruler/baseDstu3DiagnosticReport/DiagnosticReport-412049"
      }
    }
  ]
}