{
  "resourceType": "Bundle",
  "id": "Dwight-Mitchell-McCarty-6501-Encounter-857",
  "type": "transaction",
  "entry": [
    {
      "fullUrl": "http://localhost:8080/cqf-ruler/baseDstu3/Encounter/Encounter-857",
      "resource": {
        "resourceType": "Encounter",
        "id": "Encounter-857",
        "meta": {
          "profile": [
            "http://hl7.org/fhir/us/hedis/StructureDefinition/hedis-encounter"
          ]
        },
        "status": "finished",
        "class": {
          "system": "http://hl7.org/fhir/encounter-class",
          "code": "ambulatory",
          "display": "Ambulatory"
        },
        "subject": {
          "reference": "Patient/Patient-6501",
          "display": "Dwight Mitchell McCarty"
        },
        "participant": [
          {
            "period": {
              "start": "1996-01-23T20:00:00-05:00",
              "end": "1996-01-23T20:00:00-05:00"
            },
            "individual": {
              "reference": "Practitioner/Practitioner-2533",
              "display": "Lena Dickerson Ballard MD"
            }
          }
        ],
        "period": {
          "start": "1996-01-23T20:00:00-05:00",
          "end": "1996-01-23T20:00:00-05:00"
        },
        "location": [
          {
            "location": {
              "reference": "Location/Location-1001",
              "display": "Windward General Hospital"
            }
          }
        ],
        "serviceProvider": {
          "reference": "Organization/Organization-1001",
          "display": "Windward General Hospital"
        }
      },
      "request": {
        "method": "PUT",
        "url": "http://localhost:8080/cqf-ruler/baseDstu3/Encounter/Encounter-857"
      }
    },
    {
      "fullUrl": "http://localhost:8080/cqf-ruler/baseDstu3/Procedure/Procedure-159767",
      "resource": {
        "resourceType": "Procedure",
        "id": "Procedure-159767",
        "meta": {
          "profile": [
            "http://hl7.org/fhir/us/hedis/StructureDefinition/hedis-procedure"
          ]
        },
        "status": "completed",
        "code": {
          "coding": [
            {
              "system": "TEST",
              "code": "1.1.1.1",
              "display": "Alcohol Screening and Brief Counseling"
            }
          ]
        },
        "subject": {
          "reference": "Patient/Patient-6501",
          "display": "Dwight Mitchell McCarty"
        },
        "context": {
          "reference": "Encounter/Encounter-857",
          "display": "Followup_Encounter"
        },
        "performedPeriod": {
          "start": "1996-01-23T20:00:00-05:00",
          "end": "1996-01-23T20:00:00-05:00"
        },
        "performer": [
          {
            "actor": {
              "reference": "Practitioner/Practitioner-2533",
              "display": "Lena Dickerson Ballard MD"
            }
          }
        ],
        "location": {
          "reference": "Location/Location-1001",
          "display": "Windward General Hospital"
        }
      },
      "request": {
        "method": "PUT",
        "url": "http://localhost:8080/cqf-ruler/baseDstu3/Procedure/Procedure-159767"
      }
    },
    {
      "fullUrl": "http://localhost:8080/cqf-ruler/baseDstu3/Observation/Observation-159770",
      "resource": {
        "resourceType": "Observation",
        "id": "Observation-159770",
        "status": "final",
        "code": {
          "coding": [
            {
              "system": "http://loinc.org",
              "code": "8302-2",
              "display": "Height"
            }
          ]
        },
        "subject": {
          "reference": "Patient/Patient-6501",
          "display": "Dwight Mitchell McCarty"
        },
        "context": {
          "reference": "Encounter/Encounter-857",
          "display": "Followup_Encounter"
        },
        "effectiveDateTime": "1996-01-23T20:00:00-05:00",
        "performer": [
          {
            "reference": "Practitioner/Practitioner-2533",
            "display": "Lena Dickerson Ballard MD"
          }
        ],
        "valueQuantity": {
          "value": 181.7,
          "unit": "cm"
        }
      },
      "request": {
        "method": "PUT",
        "url": "http://localhost:8080/cqf-ruler/baseDstu3/Observation/Observation-159770"
      }
    },
    {
      "fullUrl": "http://localhost:8080/cqf-ruler/baseDstu3/Observation/Observation-159771",
      "resource": {
        "resourceType": "Observation",
        "id": "Observation-159771",
        "status": "final",
        "code": {
          "coding": [
            {
              "system": "http://loinc.org",
              "code": "29463-7",
              "display": "Weight"
            }
          ]
        },
        "subject": {
          "reference": "Patient/Patient-6501",
          "display": "Dwight Mitchell McCarty"
        },
        "context": {
          "reference": "Encounter/Encounter-857",
          "display": "Followup_Encounter"
        },
        "effectiveDateTime": "1996-01-23T20:00:00-05:00",
        "performer": [
          {
            "reference": "Practitioner/Practitioner-2533",
            "display": "Lena Dickerson Ballard MD"
          }
        ],
        "valueQuantity": {
          "value": 112.22855831442077,
          "unit": "kg"
        }
      },
      "request": {
        "method": "PUT",
        "url": "http://localhost:8080/cqf-ruler/baseDstu3/Observation/Observation-159771"
      }
    },
    {
      "fullUrl": "http://localhost:8080/cqf-ruler/baseDstu3/Observation/Observation-159772",
      "resource": {
        "resourceType": "Observation",
        "id": "Observation-159772",
        "status": "final",
        "code": {
          "coding": [
            {
              "system": "http://loinc.org",
              "code": "39156-5",
              "display": "BMI"
            }
          ]
        },
        "subject": {
          "reference": "Patient/Patient-6501",
          "display": "Dwight Mitchell McCarty"
        },
        "context": {
          "reference": "Encounter/Encounter-857",
          "display": "Followup_Encounter"
        },
        "effectiveDateTime": "1996-01-23T20:00:00-05:00",
        "performer": [
          {
            "reference": "Practitioner/Practitioner-2533",
            "display": "Lena Dickerson Ballard MD"
          }
        ],
        "valueQuantity": {
          "value": 33.99331583852643,
          "unit": "kg/m2"
        }
      },
      "request": {
        "method": "PUT",
        "url": "http://localhost:8080/cqf-ruler/baseDstu3/Observation/Observation-159772"
      }
    },
    {
      "fullUrl": "http://localhost:8080/cqf-ruler/baseDstu3/Observation/Observation-159773",
      "resource": {
        "resourceType": "Observation",
        "id": "Observation-159773",
        "status": "final",
        "code": {
          "coding": [
            {
              "system": "http://loinc.org",
              "code": "8310-5",
              "display": "Temperature"
            }
          ]
        },
        "subject": {
          "reference": "Patient/Patient-6501",
          "display": "Dwight Mitchell McCarty"
        },
        "context": {
          "reference": "Encounter/Encounter-857",
          "display": "Followup_Encounter"
        },
        "effectiveDateTime": "1996-01-23T20:00:00-05:00",
        "performer": [
          {
            "reference": "Practitioner/Practitioner-2533",
            "display": "Lena Dickerson Ballard MD"
          }
        ],
        "valueQuantity": {
          "value": 37.0,
          "unit": "C"
        }
      },
      "request": {
        "method": "PUT",
        "url": "http://localhost:8080/cqf-ruler/baseDstu3/Observation/Observation-159773"
      }
    },
    {
      "fullUrl": "http://localhost:8080/cqf-ruler/baseDstu3/Observation/Observation-159774",
      "resource": {
        "resourceType": "Observation",
        "id": "Observation-159774",
        "status": "final",
        "code": {
          "coding": [
            {
              "system": "http://loinc.org",
              "code": "8459-0",
              "display": "Systolic Blood Pressure"
            }
          ]
        },
        "subject": {
          "reference": "Patient/Patient-6501",
          "display": "Dwight Mitchell McCarty"
        },
        "context": {
          "reference": "Encounter/Encounter-857",
          "display": "Followup_Encounter"
        },
        "effectiveDateTime": "1996-01-23T20:00:00-05:00",
        "performer": [
          {
            "reference": "Practitioner/Practitioner-2533",
            "display": "Lena Dickerson Ballard MD"
          }
        ],
        "valueQuantity": {
          "value": 143.24800044980714,
          "unit": "mmHg"
        }
      },
      "request": {
        "method": "PUT",
        "url": "http://localhost:8080/cqf-ruler/baseDstu3/Observation/Observation-159774"
      }
    },
    {
      "fullUrl": "http://localhost:8080/cqf-ruler/baseDstu3/Observation/Observation-159775",
      "resource": {
        "resourceType": "Observation",
        "id": "Observation-159775",
        "status": "final",
        "code": {
          "coding": [
            {
              "system": "http://loinc.org",
              "code": "8453-3",
              "display": "Diastolic Blood Pressure"
            }
          ]
        },
        "subject": {
          "reference": "Patient/Patient-6501",
          "display": "Dwight Mitchell McCarty"
        },
        "context": {
          "reference": "Encounter/Encounter-857",
          "display": "Followup_Encounter"
        },
        "effectiveDateTime": "1996-01-23T20:00:00-05:00",
        "performer": [
          {
            "reference": "Practitioner/Practitioner-2533",
            "display": "Lena Dickerson Ballard MD"
          }
        ],
        "valueQuantity": {
          "value": 78.82449430096842,
          "unit": "mmHg"
        }
      },
      "request": {
        "method": "PUT",
        "url": "http://localhost:8080/cqf-ruler/baseDstu3/Observation/Observation-159775"
      }
    },
    {
      "fullUrl": "http://localhost:8080/cqf-ruler/baseDstu3/DiagnosticReport/DiagnosticReport-159769",
      "resource": {
        "resourceType": "DiagnosticReport",
        "id": "DiagnosticReport-159769",
        "meta": {
          "profile": [
            "http://hl7.org/fhir/us/hedis/StructureDefinition/hedis-diagnosticreport"
          ]
        },
        "status": "final",
        "category": {
          "coding": [
            {
              "system": "http://hl7.org/fhir/ValueSet/diagnostic-service-sections",
              "code": "LAB",
              "display": "Laboratory"
            }
          ]
        },
        "code": {
          "coding": [
            {
              "system": "http://loinc.org",
              "code": "8716-3",
              "display": "Vital Signs Panel"
            }
          ]
        },
        "subject": {
          "reference": "Patient/Patient-6501",
          "display": "Dwight Mitchell McCarty"
        },
        "context": {
          "reference": "Encounter/Encounter-857",
          "display": "Followup_Encounter"
        },
        "effectivePeriod": {
          "start": "1996-01-23T20:00:00-05:00",
          "end": "1996-01-23T20:00:00-05:00"
        },
        "issued": "1996-01-23T20:00:00.000-05:00",
        "result": [
          {
            "reference": "Observation/Observation-159770",
            "display": "Height"
          },
          {
            "reference": "Observation/Observation-159771",
            "display": "Weight"
          },
          {
            "reference": "Observation/Observation-159772",
            "display": "BMI"
          },
          {
            "reference": "Observation/Observation-159773",
            "display": "Temperature"
          },
          {
            "reference": "Observation/Observation-159774",
            "display": "Systolic Blood Pressure"
          },
          {
            "reference": "Observation/Observation-159775",
            "display": "Diastolic Blood Pressure"
          }
        ]
      },
      "request": {
        "method": "PUT",
        "url": "http://localhost:8080/cqf-ruler/baseDstu3/DiagnosticReport/DiagnosticReport-159769"
      }
    }
  ]
}