{
  "resourceType": "Bundle",
  "id": "Olga-Grace-Dunlap-6554-Encounter-2367",
  "type": "transaction",
  "entry": [
    {
      "fullUrl": "http://localhost:8080/cqf-ruler/baseDstu3/Encounter/Encounter-2367",
      "resource": {
        "resourceType": "Encounter",
        "id": "Encounter-2367",
        "status": "finished",
        "class": {
          "system": "http://hl7.org/fhir/encounter-class",
          "code": "ambulatory",
          "display": "Ambulatory"
        },
        "subject": {
          "reference": "Patient/Patient-6554",
          "display": "Olga Grace Dunlap"
        },
        "participant": [
          {
            "period": {
              "start": "2011-12-05T15:00:00-05:00",
              "end": "2011-12-05T15:00:00-05:00"
            },
            "individual": {
              "reference": "Practitioner/Practitioner-2533",
              "display": "Lena Dickerson Ballard MD"
            }
          }
        ],
        "period": {
          "start": "2011-12-05T15:00:00-05:00",
          "end": "2011-12-05T15:00:00-05:00"
        },
        "location": [
          {
            "location": {
              "reference": "Location/Location-1001",
              "display": "Windward General Hospital"
            }
          }
        ],
        "serviceProvider": {
          "reference": "Organization/Organization-1001",
          "display": "Windward General Hospital"
        }
      },
      "request": {
        "method": "PUT",
        "url": "http://localhost:8080/cqf-ruler/baseDstu3/Encounter/Encounter-2367"
      }
    },
    {
      "fullUrl": "http://localhost:8080/cqf-ruler/baseDstu3/MedicationRequest/MedicationRequest-513835",
      "resource": {
        "resourceType": "MedicationRequest",
        "id": "MedicationRequest-513835",
        "status": "active",
        "intent": "order",
        "medicationCodeableConcept": {
          "coding": [
            {
              "system": "http://www.nlm.nih.gov/research/umls/rxnorm",
              "code": "860975",
              "display": "24 HR Metformin hydrochloride 500 MG Extended Release Oral Tablet"
            }
          ]
        },
        "subject": {
          "reference": "Patient/Patient-6554",
          "display": "Olga Grace Dunlap"
        },
        "context": {
          "reference": "Encounter/Encounter-2367",
          "display": "Followup_Visit"
        },
        "authoredOn": "2011-12-05T15:00:00-05:00",
        "reasonCode": [
          {
            "coding": [
              {
                "system": "SNOMED-CT",
                "code": "44054006",
                "display": "Type 2 diabetes mellitus"
              }
            ]
          }
        ],
        "dosageInstruction": [
          {
            "timing": {
              "repeat": {
                "frequency": 1
              }
            },
            "doseQuantity": {
              "value": 1
            }
          }
        ],
        "dispenseRequest": {
          "validityPeriod": {
            "start": "2011-12-05T15:00:00-05:00",
            "end": "2011-12-05T15:00:00-05:00"
          }
        }
      },
      "request": {
        "method": "PUT",
        "url": "http://localhost:8080/cqf-ruler/baseDstu3/MedicationRequest/MedicationRequest-513835"
      }
    },
    {
      "fullUrl": "http://localhost:8080/cqf-ruler/baseDstu3/MedicationRequest/MedicationRequest-513836",
      "resource": {
        "resourceType": "MedicationRequest",
        "id": "MedicationRequest-513836",
        "status": "active",
        "intent": "order",
        "medicationCodeableConcept": {
          "coding": [
            {
              "system": "http://www.nlm.nih.gov/research/umls/rxnorm",
              "code": "1373463",
              "display": "canagliflozin 100 MG Oral Tablet"
            }
          ]
        },
        "subject": {
          "reference": "Patient/Patient-6554",
          "display": "Olga Grace Dunlap"
        },
        "context": {
          "reference": "Encounter/Encounter-2367",
          "display": "Followup_Visit"
        },
        "authoredOn": "2011-12-05T15:00:00-05:00",
        "reasonCode": [
          {
            "coding": [
              {
                "system": "SNOMED-CT",
                "code": "44054006",
                "display": "Type 2 diabetes mellitus"
              }
            ]
          }
        ],
        "dosageInstruction": [
          {
            "timing": {
              "repeat": {
                "frequency": 1
              }
            },
            "doseQuantity": {
              "value": 1
            }
          }
        ],
        "dispenseRequest": {
          "validityPeriod": {
            "start": "2011-12-05T15:00:00-05:00",
            "end": "2011-12-05T15:00:00-05:00"
          }
        }
      },
      "request": {
        "method": "PUT",
        "url": "http://localhost:8080/cqf-ruler/baseDstu3/MedicationRequest/MedicationRequest-513836"
      }
    },
    {
      "fullUrl": "http://localhost:8080/cqf-ruler/baseDstu3/MedicationRequest/MedicationRequest-513837",
      "resource": {
        "resourceType": "MedicationRequest",
        "id": "MedicationRequest-513837",
        "status": "active",
        "intent": "order",
        "medicationCodeableConcept": {
          "coding": [
            {
              "system": "http://www.nlm.nih.gov/research/umls/rxnorm",
              "code": "897122",
              "display": "3 ML liraglutide 6 MG/ML Pen Injector"
            }
          ]
        },
        "subject": {
          "reference": "Patient/Patient-6554",
          "display": "Olga Grace Dunlap"
        },
        "context": {
          "reference": "Encounter/Encounter-2367",
          "display": "Followup_Visit"
        },
        "authoredOn": "2011-12-05T15:00:00-05:00",
        "reasonCode": [
          {
            "coding": [
              {
                "system": "SNOMED-CT",
                "code": "44054006",
                "display": "Type 2 diabetes mellitus"
              }
            ]
          }
        ],
        "dosageInstruction": [
          {
            "timing": {
              "repeat": {
                "frequency": 1
              }
            },
            "doseQuantity": {
              "value": 1
            }
          }
        ],
        "dispenseRequest": {
          "validityPeriod": {
            "start": "2011-12-05T15:00:00-05:00",
            "end": "2011-12-05T15:00:00-05:00"
          }
        }
      },
      "request": {
        "method": "PUT",
        "url": "http://localhost:8080/cqf-ruler/baseDstu3/MedicationRequest/MedicationRequest-513837"
      }
    },
    {
      "fullUrl": "http://localhost:8080/cqf-ruler/baseDstu3/Observation/Observation-513840",
      "resource": {
        "resourceType": "Observation",
        "id": "Observation-513840",
        "status": "final",
        "code": {
          "coding": [
            {
              "system": "http://loinc.org",
              "code": "8302-2",
              "display": "Height"
            }
          ]
        },
        "subject": {
          "reference": "Patient/Patient-6554",
          "display": "Olga Grace Dunlap"
        },
        "context": {
          "reference": "Encounter/Encounter-2367",
          "display": "Followup_Visit"
        },
        "effectiveDateTime": "2011-12-05T15:00:00-05:00",
        "performer": [
          {
            "reference": "Practitioner/Practitioner-2533",
            "display": "Lena Dickerson Ballard MD"
          }
        ],
        "valueQuantity": {
          "value": 163.3,
          "unit": "cm"
        }
      },
      "request": {
        "method": "PUT",
        "url": "http://localhost:8080/cqf-ruler/baseDstu3/Observation/Observation-513840"
      }
    },
    {
      "fullUrl": "http://localhost:8080/cqf-ruler/baseDstu3/Observation/Observation-513841",
      "resource": {
        "resourceType": "Observation",
        "id": "Observation-513841",
        "status": "final",
        "code": {
          "coding": [
            {
              "system": "http://loinc.org",
              "code": "29463-7",
              "display": "Weight"
            }
          ]
        },
        "subject": {
          "reference": "Patient/Patient-6554",
          "display": "Olga Grace Dunlap"
        },
        "context": {
          "reference": "Encounter/Encounter-2367",
          "display": "Followup_Visit"
        },
        "effectiveDateTime": "2011-12-05T15:00:00-05:00",
        "performer": [
          {
            "reference": "Practitioner/Practitioner-2533",
            "display": "Lena Dickerson Ballard MD"
          }
        ],
        "valueQuantity": {
          "value": 75.61308614151923,
          "unit": "kg"
        }
      },
      "request": {
        "method": "PUT",
        "url": "http://localhost:8080/cqf-ruler/baseDstu3/Observation/Observation-513841"
      }
    },
    {
      "fullUrl": "http://localhost:8080/cqf-ruler/baseDstu3/Observation/Observation-513842",
      "resource": {
        "resourceType": "Observation",
        "id": "Observation-513842",
        "status": "final",
        "code": {
          "coding": [
            {
              "system": "http://loinc.org",
              "code": "39156-5",
              "display": "BMI"
            }
          ]
        },
        "subject": {
          "reference": "Patient/Patient-6554",
          "display": "Olga Grace Dunlap"
        },
        "context": {
          "reference": "Encounter/Encounter-2367",
          "display": "Followup_Visit"
        },
        "effectiveDateTime": "2011-12-05T15:00:00-05:00",
        "performer": [
          {
            "reference": "Practitioner/Practitioner-2533",
            "display": "Lena Dickerson Ballard MD"
          }
        ],
        "valueQuantity": {
          "value": 28.354669832709863,
          "unit": "kg/m2"
        }
      },
      "request": {
        "method": "PUT",
        "url": "http://localhost:8080/cqf-ruler/baseDstu3/Observation/Observation-513842"
      }
    },
    {
      "fullUrl": "http://localhost:8080/cqf-ruler/baseDstu3/Observation/Observation-513843",
      "resource": {
        "resourceType": "Observation",
        "id": "Observation-513843",
        "status": "final",
        "code": {
          "coding": [
            {
              "system": "http://loinc.org",
              "code": "8310-5",
              "display": "Temperature"
            }
          ]
        },
        "subject": {
          "reference": "Patient/Patient-6554",
          "display": "Olga Grace Dunlap"
        },
        "context": {
          "reference": "Encounter/Encounter-2367",
          "display": "Followup_Visit"
        },
        "effectiveDateTime": "2011-12-05T15:00:00-05:00",
        "performer": [
          {
            "reference": "Practitioner/Practitioner-2533",
            "display": "Lena Dickerson Ballard MD"
          }
        ],
        "valueQuantity": {
          "value": 37.0,
          "unit": "C"
        }
      },
      "request": {
        "method": "PUT",
        "url": "http://localhost:8080/cqf-ruler/baseDstu3/Observation/Observation-513843"
      }
    },
    {
      "fullUrl": "http://localhost:8080/cqf-ruler/baseDstu3/Observation/Observation-513844",
      "resource": {
        "resourceType": "Observation",
        "id": "Observation-513844",
        "status": "final",
        "code": {
          "coding": [
            {
              "system": "http://loinc.org",
              "code": "8459-0",
              "display": "Systolic Blood Pressure"
            }
          ]
        },
        "subject": {
          "reference": "Patient/Patient-6554",
          "display": "Olga Grace Dunlap"
        },
        "context": {
          "reference": "Encounter/Encounter-2367",
          "display": "Followup_Visit"
        },
        "effectiveDateTime": "2011-12-05T15:00:00-05:00",
        "performer": [
          {
            "reference": "Practitioner/Practitioner-2533",
            "display": "Lena Dickerson Ballard MD"
          }
        ],
        "valueQuantity": {
          "value": 142.5364251042007,
          "unit": "mmHg"
        }
      },
      "request": {
        "method": "PUT",
        "url": "http://localhost:8080/cqf-ruler/baseDstu3/Observation/Observation-513844"
      }
    },
    {
      "fullUrl": "http://localhost:8080/cqf-ruler/baseDstu3/Observation/Observation-513845",
      "resource": {
        "resourceType": "Observation",
        "id": "Observation-513845",
        "status": "final",
        "code": {
          "coding": [
            {
              "system": "http://loinc.org",
              "code": "8453-3",
              "display": "Diastolic Blood Pressure"
            }
          ]
        },
        "subject": {
          "reference": "Patient/Patient-6554",
          "display": "Olga Grace Dunlap"
        },
        "context": {
          "reference": "Encounter/Encounter-2367",
          "display": "Followup_Visit"
        },
        "effectiveDateTime": "2011-12-05T15:00:00-05:00",
        "performer": [
          {
            "reference": "Practitioner/Practitioner-2533",
            "display": "Lena Dickerson Ballard MD"
          }
        ],
        "valueQuantity": {
          "value": 97.13719293398005,
          "unit": "mmHg"
        }
      },
      "request": {
        "method": "PUT",
        "url": "http://localhost:8080/cqf-ruler/baseDstu3/Observation/Observation-513845"
      }
    },
    {
      "fullUrl": "http://localhost:8080/cqf-ruler/baseDstu3/DiagnosticReport/DiagnosticReport-513839",
      "resource": {
        "resourceType": "DiagnosticReport",
        "id": "DiagnosticReport-513839",
        "status": "final",
        "code": {
          "coding": [
            {
              "system": "http://loinc.org",
              "code": "8716-3",
              "display": "Vital Signs Panel"
            }
          ]
        },
        "subject": {
          "reference": "Patient/Patient-6554",
          "display": "Olga Grace Dunlap"
        },
        "context": {
          "reference": "Encounter/Encounter-2367",
          "display": "Followup_Visit"
        },
        "effectivePeriod": {
          "start": "2011-12-05T15:00:00-05:00",
          "end": "2011-12-05T15:00:00-05:00"
        },
        "issued": "2011-12-05T15:00:00.000-05:00",
        "result": [
          {
            "reference": "Observation/Observation-513840",
            "display": "Height"
          },
          {
            "reference": "Observation/Observation-513841",
            "display": "Weight"
          },
          {
            "reference": "Observation/Observation-513842",
            "display": "BMI"
          },
          {
            "reference": "Observation/Observation-513843",
            "display": "Temperature"
          },
          {
            "reference": "Observation/Observation-513844",
            "display": "Systolic Blood Pressure"
          },
          {
            "reference": "Observation/Observation-513845",
            "display": "Diastolic Blood Pressure"
          }
        ]
      },
      "request": {
        "method": "PUT",
        "url": "http://localhost:8080/cqf-ruler/baseDstu3/DiagnosticReport/DiagnosticReport-513839"
      }
    }
  ]
}