{
  "resourceType": "Bundle",
  "id": "Olga-Grace-Dunlap-6554-Encounter-1052",
  "type": "transaction",
  "entry": [
    {
      "fullUrl": "http://localhost:8080/cqf-ruler/baseDstu3/Encounter/Encounter-1052",
      "resource": {
        "resourceType": "Encounter",
        "id": "Encounter-1052",
        "status": "finished",
        "class": {
          "system": "http://hl7.org/fhir/encounter-class",
          "code": "outpatient",
          "display": "Inpatient"
        },
        "subject": {
          "reference": "Patient/Patient-6554",
          "display": "Olga Grace Dunlap"
        },
        "participant": [
          {
            "period": {
              "start": "2001-07-20T00:00:00-04:00",
              "end": "2001-07-20T00:00:00-04:00"
            },
            "individual": {
              "reference": "Practitioner/Practitioner-2531",
              "display": "Tracy Hampton Boone MD"
            }
          }
        ],
        "period": {
          "start": "2001-07-20T00:00:00-04:00",
          "end": "2001-07-20T00:00:00-04:00"
        },
        "location": [
          {
            "location": {
              "reference": "Location/Location-1104",
              "display": "Bay Area Family Practice"
            }
          }
        ],
        "serviceProvider": {
          "reference": "Organization/Organization-1104",
          "display": "Bay Area Family Practice"
        }
      },
      "request": {
        "method": "PUT",
        "url": "http://localhost:8080/cqf-ruler/baseDstu3/Encounter/Encounter-1052"
      }
    },
    {
      "fullUrl": "http://localhost:8080/cqf-ruler/baseDstu3/Immunization/Immunization-209929",
      "resource": {
        "resourceType": "Immunization",
        "id": "Immunization-209929",
        "status": "completed",
        "notGiven": false,
        "vaccineCode": {
          "coding": [
            {
              "system": "http://hl7.org/fhir/sid/cvx",
              "code": "140",
              "display": "Influenza, seasonal, injectable, preservative free"
            }
          ]
        },
        "patient": {
          "reference": "Patient/Patient-6554",
          "display": "Olga Grace Dunlap"
        },
        "date": "2001-07-20T00:00:00-04:00",
        "primarySource": true,
        "location": {
          "reference": "Location/Location-1104",
          "display": "Bay Area Family Practice"
        },
        "practitioner": [
          {
            "actor": {
              "reference": "Practitioner/Practitioner-2531",
              "display": "Tracy Hampton Boone MD"
            }
          }
        ]
      },
      "request": {
        "method": "PUT",
        "url": "http://localhost:8080/cqf-ruler/baseDstu3/Immunization/Immunization-209929"
      }
    },
    {
      "fullUrl": "http://localhost:8080/cqf-ruler/baseDstu3/Observation/Observation-273900",
      "resource": {
        "resourceType": "Observation",
        "id": "Observation-273900",
        "status": "final",
        "code": {
          "coding": [
            {
              "system": "http://loinc.org",
              "code": "8480-6",
              "display": "Systolic blood pressure"
            }
          ]
        },
        "subject": {
          "reference": "Patient/Patient-6554",
          "display": "Olga Grace Dunlap"
        },
        "context": {
          "reference": "Encounter/Encounter-1052",
          "display": "Wellness Visit"
        },
        "effectivePeriod": {
          "start": "2001-07-20T00:00:00-04:00",
          "end": "2001-07-20T00:00:00-04:00"
        },
        "performer": [
          {
            "reference": "Practitioner/Practitioner-2531",
            "display": "Tracy Hampton Boone MD"
          }
        ],
        "valueQuantity": {
          "value": 158.41671940832356,
          "unit": "mmHg"
        }
      },
      "request": {
        "method": "PUT",
        "url": "http://localhost:8080/cqf-ruler/baseDstu3/Observation/Observation-273900"
      }
    },
    {
      "fullUrl": "http://localhost:8080/cqf-ruler/baseDstu3/Observation/Observation-273901",
      "resource": {
        "resourceType": "Observation",
        "id": "Observation-273901",
        "status": "final",
        "code": {
          "coding": [
            {
              "system": "http://loinc.org",
              "code": "8462-4",
              "display": "Diastolic blood pressure"
            }
          ]
        },
        "subject": {
          "reference": "Patient/Patient-6554",
          "display": "Olga Grace Dunlap"
        },
        "context": {
          "reference": "Encounter/Encounter-1052",
          "display": "Wellness Visit"
        },
        "effectivePeriod": {
          "start": "2001-07-20T00:00:00-04:00",
          "end": "2001-07-20T00:00:00-04:00"
        },
        "performer": [
          {
            "reference": "Practitioner/Practitioner-2531",
            "display": "Tracy Hampton Boone MD"
          }
        ],
        "valueQuantity": {
          "value": 79.58758478836367,
          "unit": "mmHg"
        }
      },
      "request": {
        "method": "PUT",
        "url": "http://localhost:8080/cqf-ruler/baseDstu3/Observation/Observation-273901"
      }
    },
    {
      "fullUrl": "http://localhost:8080/cqf-ruler/baseDstu3/Condition/Condition-273902",
      "resource": {
        "resourceType": "Condition",
        "id": "Condition-273902",
        "clinicalStatus": "active",
        "verificationStatus": "confirmed",
        "code": {
          "coding": [
            {
              "system": "http://snomed.info/sct",
              "code": "276789009",
              "display": "Labile hypertension"
            }
          ]
        },
        "subject": {
          "reference": "Patient/Patient-6554",
          "display": "Olga Grace Dunlap"
        },
        "context": {
          "reference": "Encounter/Encounter-1052",
          "display": "Wellness Visit"
        },
        "onsetDateTime": "2001-07-20T00:00:00-04:00",
        "assertedDate": "2001-07-20T00:00:00-04:00",
        "asserter": {
          "reference": "Practitioner/Practitioner-2531",
          "display": "Tracy Hampton Boone MD"
        }
      },
      "request": {
        "method": "PUT",
        "url": "http://localhost:8080/cqf-ruler/baseDstu3/Condition/Condition-273902"
      }
    },
    {
      "fullUrl": "http://localhost:8080/cqf-ruler/baseDstu3/Procedure/Procedure-273903",
      "resource": {
        "resourceType": "Procedure",
        "id": "Procedure-273903",
        "status": "completed",
        "code": {
          "coding": [
            {
              "system": "http://www.ama-assn.org/go/cpt",
              "code": "87621",
              "display": "Infectious agent detection by nucleic acid (DNA or RNA); papillomavirus, human, amplified probe technique"
            }
          ]
        },
        "subject": {
          "reference": "Patient/Patient-6554",
          "display": "Olga Grace Dunlap"
        },
        "context": {
          "reference": "Encounter/Encounter-1052",
          "display": "Wellness Visit"
        },
        "performedPeriod": {
          "start": "2001-07-20T00:00:00-04:00",
          "end": "2001-07-20T00:00:00-04:00"
        },
        "performer": [
          {
            "actor": {
              "reference": "Practitioner/Practitioner-2531",
              "display": "Tracy Hampton Boone MD"
            }
          }
        ],
        "location": {
          "reference": "Location/Location-1104",
          "display": "Bay Area Family Practice"
        }
      },
      "request": {
        "method": "PUT",
        "url": "http://localhost:8080/cqf-ruler/baseDstu3/Procedure/Procedure-273903"
      }
    },
    {
      "fullUrl": "http://localhost:8080/cqf-ruler/baseDstu3/Observation/Observation-273904",
      "resource": {
        "resourceType": "Observation",
        "id": "Observation-273904",
        "status": "final",
        "code": {
          "coding": [
            {
              "system": "http://snomed.info/sct",
              "code": "289829007",
              "display": "Normal uterine cervix (finding)"
            }
          ]
        },
        "subject": {
          "reference": "Patient/Patient-6554",
          "display": "Olga Grace Dunlap"
        },
        "context": {
          "reference": "Encounter/Encounter-1052",
          "display": "Wellness Visit"
        },
        "effectivePeriod": {
          "start": "2001-07-20T00:00:00-04:00",
          "end": "2001-07-20T00:00:00-04:00"
        },
        "performer": [
          {
            "reference": "Practitioner/Practitioner-2531",
            "display": "Tracy Hampton Boone MD"
          }
        ],
        "valueString": "NEGATIVE"
      },
      "request": {
        "method": "PUT",
        "url": "http://localhost:8080/cqf-ruler/baseDstu3/Observation/Observation-273904"
      }
    },
    {
      "fullUrl": "http://localhost:8080/cqf-ruler/baseDstu3/DiagnosticReport/DiagnosticReport-273905",
      "resource": {
        "resourceType": "DiagnosticReport",
        "id": "DiagnosticReport-273905",
        "status": "final",
        "code": {
          "coding": [
            {
              "system": "https://www.cms.gov/Medicare/Coding/MedHCPCSGenInfo/index.html",
              "code": "P3000",
              "display": "Screening papanicolaou smear, cervical or vaginal, up to three smears, by technician under physician supervision"
            }
          ]
        },
        "subject": {
          "reference": "Patient/Patient-6554",
          "display": "Olga Grace Dunlap"
        },
        "context": {
          "reference": "Encounter/Encounter-1052",
          "display": "Wellness Visit"
        },
        "effectivePeriod": {
          "start": "2001-07-20T00:00:00-04:00",
          "end": "2001-07-20T00:00:00-04:00"
        },
        "issued": "2001-07-20T00:00:00.000-04:00",
        "result": [
          {
            "reference": "Observation/Observation-273904",
            "display": "No_Cancer_Detected"
          }
        ]
      },
      "request": {
        "method": "PUT",
        "url": "http://localhost:8080/cqf-ruler/baseDstu3/DiagnosticReport/DiagnosticReport-273905"
      }
    },
    {
      "fullUrl": "http://localhost:8080/cqf-ruler/baseDstu3/Observation/Observation-273906",
      "resource": {
        "resourceType": "Observation",
        "id": "Observation-273906",
        "status": "final",
        "code": {
          "coding": [
            {
              "system": "http://loinc.org",
              "code": "8302-2",
              "display": "Body Height"
            }
          ]
        },
        "subject": {
          "reference": "Patient/Patient-6554",
          "display": "Olga Grace Dunlap"
        },
        "context": {
          "reference": "Encounter/Encounter-1052",
          "display": "Wellness Visit"
        },
        "effectivePeriod": {
          "start": "2001-07-20T00:00:00-04:00",
          "end": "2001-07-20T00:00:00-04:00"
        },
        "performer": [
          {
            "reference": "Practitioner/Practitioner-2531",
            "display": "Tracy Hampton Boone MD"
          }
        ],
        "valueQuantity": {
          "value": 163.3,
          "unit": "cm"
        }
      },
      "request": {
        "method": "PUT",
        "url": "http://localhost:8080/cqf-ruler/baseDstu3/Observation/Observation-273906"
      }
    },
    {
      "fullUrl": "http://localhost:8080/cqf-ruler/baseDstu3/Observation/Observation-273907",
      "resource": {
        "resourceType": "Observation",
        "id": "Observation-273907",
        "status": "final",
        "code": {
          "coding": [
            {
              "system": "http://loinc.org",
              "code": "29463-7",
              "display": "Body Weight"
            }
          ]
        },
        "subject": {
          "reference": "Patient/Patient-6554",
          "display": "Olga Grace Dunlap"
        },
        "context": {
          "reference": "Encounter/Encounter-1052",
          "display": "Wellness Visit"
        },
        "effectivePeriod": {
          "start": "2001-07-20T00:00:00-04:00",
          "end": "2001-07-20T00:00:00-04:00"
        },
        "performer": [
          {
            "reference": "Practitioner/Practitioner-2531",
            "display": "Tracy Hampton Boone MD"
          }
        ],
        "valueQuantity": {
          "value": 73.19204923260739,
          "unit": "kg"
        }
      },
      "request": {
        "method": "PUT",
        "url": "http://localhost:8080/cqf-ruler/baseDstu3/Observation/Observation-273907"
      }
    },
    {
      "fullUrl": "http://localhost:8080/cqf-ruler/baseDstu3/Observation/Observation-273908",
      "resource": {
        "resourceType": "Observation",
        "id": "Observation-273908",
        "status": "final",
        "code": {
          "coding": [
            {
              "system": "http://loinc.org",
              "code": "39156-5",
              "display": "Body Mass Index"
            }
          ]
        },
        "subject": {
          "reference": "Patient/Patient-6554",
          "display": "Olga Grace Dunlap"
        },
        "context": {
          "reference": "Encounter/Encounter-1052",
          "display": "Wellness Visit"
        },
        "effectivePeriod": {
          "start": "2001-07-20T00:00:00-04:00",
          "end": "2001-07-20T00:00:00-04:00"
        },
        "performer": [
          {
            "reference": "Practitioner/Practitioner-2531",
            "display": "Tracy Hampton Boone MD"
          }
        ],
        "valueQuantity": {
          "value": 27.446788595373285,
          "unit": "kg/m2"
        }
      },
      "request": {
        "method": "PUT",
        "url": "http://localhost:8080/cqf-ruler/baseDstu3/Observation/Observation-273908"
      }
    },
    {
      "fullUrl": "http://localhost:8080/cqf-ruler/baseDstu3/Observation/Observation-273911",
      "resource": {
        "resourceType": "Observation",
        "id": "Observation-273911",
        "status": "final",
        "category": [
          {
            "coding": [
              {
                "system": "http://hl7.org/fhir/observation-category",
                "code": "vital-signs",
                "display": "vital-signs"
              }
            ]
          }
        ],
        "code": {
          "coding": [
            {
              "system": "http://loinc.org",
              "code": "55284-4",
              "display": "Blood Pressure"
            }
          ]
        },
        "subject": {
          "reference": "Patient/Patient-6554",
          "display": "Olga Grace Dunlap"
        },
        "context": {
          "reference": "Encounter/Encounter-1052",
          "display": "Wellness Visit"
        },
        "effectivePeriod": {
          "start": "2001-07-20T00:00:00-04:00",
          "end": "2001-07-20T00:00:00-04:00"
        },
        "valueQuantity": {
          "value": 79.58758478836367,
          "unit": "mmHg"
        },
        "component": [
          {
            "code": {
              "coding": [
                {
                  "system": "http://loinc.org",
                  "code": "8480-6",
                  "display": "Systolic Blood Pressure"
                }
              ]
            }
          },
          {
            "code": {
              "coding": [
                {
                  "system": "http://loinc.org",
                  "code": "8462-4",
                  "display": "Diastolic Blood Pressure"
                }
              ]
            }
          }
        ]
      },
      "request": {
        "method": "PUT",
        "url": "http://localhost:8080/cqf-ruler/baseDstu3/Observation/Observation-273911"
      }
    },
    {
      "fullUrl": "http://localhost:8080/cqf-ruler/baseDstu3/Observation/Observation-273912",
      "resource": {
        "resourceType": "Observation",
        "id": "Observation-273912",
        "status": "final",
        "code": {
          "coding": [
            {
              "system": "http://loinc.org",
              "code": "2093-3",
              "display": "Total Cholesterol"
            }
          ]
        },
        "subject": {
          "reference": "Patient/Patient-6554",
          "display": "Olga Grace Dunlap"
        },
        "context": {
          "reference": "Encounter/Encounter-1052",
          "display": "Wellness Visit"
        },
        "effectivePeriod": {
          "start": "2001-07-20T00:00:00-04:00",
          "end": "2001-07-20T00:00:00-04:00"
        },
        "performer": [
          {
            "reference": "Practitioner/Practitioner-2531",
            "display": "Tracy Hampton Boone MD"
          }
        ],
        "valueQuantity": {
          "value": 163.34064034020705,
          "unit": "mg/dL"
        }
      },
      "request": {
        "method": "PUT",
        "url": "http://localhost:8080/cqf-ruler/baseDstu3/Observation/Observation-273912"
      }
    },
    {
      "fullUrl": "http://localhost:8080/cqf-ruler/baseDstu3/Observation/Observation-273913",
      "resource": {
        "resourceType": "Observation",
        "id": "Observation-273913",
        "status": "final",
        "code": {
          "coding": [
            {
              "system": "http://loinc.org",
              "code": "2571-8",
              "display": "Triglycerides"
            }
          ]
        },
        "subject": {
          "reference": "Patient/Patient-6554",
          "display": "Olga Grace Dunlap"
        },
        "context": {
          "reference": "Encounter/Encounter-1052",
          "display": "Wellness Visit"
        },
        "effectivePeriod": {
          "start": "2001-07-20T00:00:00-04:00",
          "end": "2001-07-20T00:00:00-04:00"
        },
        "performer": [
          {
            "reference": "Practitioner/Practitioner-2531",
            "display": "Tracy Hampton Boone MD"
          }
        ],
        "valueQuantity": {
          "value": 53.24274968757999,
          "unit": "mg/dL"
        }
      },
      "request": {
        "method": "PUT",
        "url": "http://localhost:8080/cqf-ruler/baseDstu3/Observation/Observation-273913"
      }
    },
    {
      "fullUrl": "http://localhost:8080/cqf-ruler/baseDstu3/Observation/Observation-273914",
      "resource": {
        "resourceType": "Observation",
        "id": "Observation-273914",
        "status": "final",
        "code": {
          "coding": [
            {
              "system": "http://loinc.org",
              "code": "18262-6",
              "display": "Low Density Lipoprotein Cholesterol"
            }
          ]
        },
        "subject": {
          "reference": "Patient/Patient-6554",
          "display": "Olga Grace Dunlap"
        },
        "context": {
          "reference": "Encounter/Encounter-1052",
          "display": "Wellness Visit"
        },
        "effectivePeriod": {
          "start": "2001-07-20T00:00:00-04:00",
          "end": "2001-07-20T00:00:00-04:00"
        },
        "performer": [
          {
            "reference": "Practitioner/Practitioner-2531",
            "display": "Tracy Hampton Boone MD"
          }
        ],
        "valueQuantity": {
          "value": 98.99528759685742,
          "unit": "mg/dL"
        }
      },
      "request": {
        "method": "PUT",
        "url": "http://localhost:8080/cqf-ruler/baseDstu3/Observation/Observation-273914"
      }
    },
    {
      "fullUrl": "http://localhost:8080/cqf-ruler/baseDstu3/Observation/Observation-273915",
      "resource": {
        "resourceType": "Observation",
        "id": "Observation-273915",
        "status": "final",
        "code": {
          "coding": [
            {
              "system": "http://loinc.org",
              "code": "2085-9",
              "display": "High Density Lipoprotein Cholesterol"
            }
          ]
        },
        "subject": {
          "reference": "Patient/Patient-6554",
          "display": "Olga Grace Dunlap"
        },
        "context": {
          "reference": "Encounter/Encounter-1052",
          "display": "Wellness Visit"
        },
        "effectivePeriod": {
          "start": "2001-07-20T00:00:00-04:00",
          "end": "2001-07-20T00:00:00-04:00"
        },
        "performer": [
          {
            "reference": "Practitioner/Practitioner-2531",
            "display": "Tracy Hampton Boone MD"
          }
        ],
        "valueQuantity": {
          "value": 53.69680280583361,
          "unit": "mg/dL"
        }
      },
      "request": {
        "method": "PUT",
        "url": "http://localhost:8080/cqf-ruler/baseDstu3/Observation/Observation-273915"
      }
    },
    {
      "fullUrl": "http://localhost:8080/cqf-ruler/baseDstu3/DiagnosticReport/DiagnosticReport-273916",
      "resource": {
        "resourceType": "DiagnosticReport",
        "id": "DiagnosticReport-273916",
        "status": "final",
        "code": {
          "coding": [
            {
              "system": "http://loinc.org",
              "code": "57698-3",
              "display": "Lipid Panel"
            }
          ]
        },
        "subject": {
          "reference": "Patient/Patient-6554",
          "display": "Olga Grace Dunlap"
        },
        "context": {
          "reference": "Encounter/Encounter-1052",
          "display": "Wellness Visit"
        },
        "effectivePeriod": {
          "start": "2001-07-20T00:00:00-04:00",
          "end": "2001-07-20T00:00:00-04:00"
        },
        "issued": "2001-07-20T00:00:00.000-04:00",
        "result": [
          {
            "reference": "Observation/Observation-273912",
            "display": "Record_Cholesterol"
          },
          {
            "reference": "Observation/Observation-273913",
            "display": "Record_Triglycerides"
          },
          {
            "reference": "Observation/Observation-273914",
            "display": "Record_LDL"
          },
          {
            "reference": "Observation/Observation-273915",
            "display": "Record_HDL"
          }
        ]
      },
      "request": {
        "method": "PUT",
        "url": "http://localhost:8080/cqf-ruler/baseDstu3/DiagnosticReport/DiagnosticReport-273916"
      }
    },
    {
      "fullUrl": "http://localhost:8080/cqf-ruler/baseDstu3/Observation/Observation-273918",
      "resource": {
        "resourceType": "Observation",
        "id": "Observation-273918",
        "status": "final",
        "code": {
          "coding": [
            {
              "system": "http://loinc.org",
              "code": "8302-2",
              "display": "Height"
            }
          ]
        },
        "subject": {
          "reference": "Patient/Patient-6554",
          "display": "Olga Grace Dunlap"
        },
        "context": {
          "reference": "Encounter/Encounter-1052",
          "display": "Wellness Visit"
        },
        "effectiveDateTime": "2001-07-20T00:00:00-04:00",
        "performer": [
          {
            "reference": "Practitioner/Practitioner-2531",
            "display": "Tracy Hampton Boone MD"
          }
        ],
        "valueQuantity": {
          "value": 163.3,
          "unit": "cm"
        }
      },
      "request": {
        "method": "PUT",
        "url": "http://localhost:8080/cqf-ruler/baseDstu3/Observation/Observation-273918"
      }
    },
    {
      "fullUrl": "http://localhost:8080/cqf-ruler/baseDstu3/Observation/Observation-273919",
      "resource": {
        "resourceType": "Observation",
        "id": "Observation-273919",
        "status": "final",
        "code": {
          "coding": [
            {
              "system": "http://loinc.org",
              "code": "29463-7",
              "display": "Weight"
            }
          ]
        },
        "subject": {
          "reference": "Patient/Patient-6554",
          "display": "Olga Grace Dunlap"
        },
        "context": {
          "reference": "Encounter/Encounter-1052",
          "display": "Wellness Visit"
        },
        "effectiveDateTime": "2001-07-20T00:00:00-04:00",
        "performer": [
          {
            "reference": "Practitioner/Practitioner-2531",
            "display": "Tracy Hampton Boone MD"
          }
        ],
        "valueQuantity": {
          "value": 73.19204923260739,
          "unit": "kg"
        }
      },
      "request": {
        "method": "PUT",
        "url": "http://localhost:8080/cqf-ruler/baseDstu3/Observation/Observation-273919"
      }
    },
    {
      "fullUrl": "http://localhost:8080/cqf-ruler/baseDstu3/Observation/Observation-273920",
      "resource": {
        "resourceType": "Observation",
        "id": "Observation-273920",
        "status": "final",
        "code": {
          "coding": [
            {
              "system": "http://loinc.org",
              "code": "39156-5",
              "display": "BMI"
            }
          ]
        },
        "subject": {
          "reference": "Patient/Patient-6554",
          "display": "Olga Grace Dunlap"
        },
        "context": {
          "reference": "Encounter/Encounter-1052",
          "display": "Wellness Visit"
        },
        "effectiveDateTime": "2001-07-20T00:00:00-04:00",
        "performer": [
          {
            "reference": "Practitioner/Practitioner-2531",
            "display": "Tracy Hampton Boone MD"
          }
        ],
        "valueQuantity": {
          "value": 27.446788595373285,
          "unit": "kg/m2"
        }
      },
      "request": {
        "method": "PUT",
        "url": "http://localhost:8080/cqf-ruler/baseDstu3/Observation/Observation-273920"
      }
    },
    {
      "fullUrl": "http://localhost:8080/cqf-ruler/baseDstu3/Observation/Observation-273921",
      "resource": {
        "resourceType": "Observation",
        "id": "Observation-273921",
        "status": "final",
        "code": {
          "coding": [
            {
              "system": "http://loinc.org",
              "code": "8310-5",
              "display": "Temperature"
            }
          ]
        },
        "subject": {
          "reference": "Patient/Patient-6554",
          "display": "Olga Grace Dunlap"
        },
        "context": {
          "reference": "Encounter/Encounter-1052",
          "display": "Wellness Visit"
        },
        "effectiveDateTime": "2001-07-20T00:00:00-04:00",
        "performer": [
          {
            "reference": "Practitioner/Practitioner-2531",
            "display": "Tracy Hampton Boone MD"
          }
        ],
        "valueQuantity": {
          "value": 37.0,
          "unit": "C"
        }
      },
      "request": {
        "method": "PUT",
        "url": "http://localhost:8080/cqf-ruler/baseDstu3/Observation/Observation-273921"
      }
    },
    {
      "fullUrl": "http://localhost:8080/cqf-ruler/baseDstu3/Observation/Observation-273922",
      "resource": {
        "resourceType": "Observation",
        "id": "Observation-273922",
        "status": "final",
        "code": {
          "coding": [
            {
              "system": "http://loinc.org",
              "code": "8459-0",
              "display": "Systolic Blood Pressure"
            }
          ]
        },
        "subject": {
          "reference": "Patient/Patient-6554",
          "display": "Olga Grace Dunlap"
        },
        "context": {
          "reference": "Encounter/Encounter-1052",
          "display": "Wellness Visit"
        },
        "effectiveDateTime": "2001-07-20T00:00:00-04:00",
        "performer": [
          {
            "reference": "Practitioner/Practitioner-2531",
            "display": "Tracy Hampton Boone MD"
          }
        ],
        "valueQuantity": {
          "value": 158.41671940832356,
          "unit": "mmHg"
        }
      },
      "request": {
        "method": "PUT",
        "url": "http://localhost:8080/cqf-ruler/baseDstu3/Observation/Observation-273922"
      }
    },
    {
      "fullUrl": "http://localhost:8080/cqf-ruler/baseDstu3/Observation/Observation-273923",
      "resource": {
        "resourceType": "Observation",
        "id": "Observation-273923",
        "status": "final",
        "code": {
          "coding": [
            {
              "system": "http://loinc.org",
              "code": "8453-3",
              "display": "Diastolic Blood Pressure"
            }
          ]
        },
        "subject": {
          "reference": "Patient/Patient-6554",
          "display": "Olga Grace Dunlap"
        },
        "context": {
          "reference": "Encounter/Encounter-1052",
          "display": "Wellness Visit"
        },
        "effectiveDateTime": "2001-07-20T00:00:00-04:00",
        "performer": [
          {
            "reference": "Practitioner/Practitioner-2531",
            "display": "Tracy Hampton Boone MD"
          }
        ],
        "valueQuantity": {
          "value": 79.58758478836367,
          "unit": "mmHg"
        }
      },
      "request": {
        "method": "PUT",
        "url": "http://localhost:8080/cqf-ruler/baseDstu3/Observation/Observation-273923"
      }
    },
    {
      "fullUrl": "http://localhost:8080/cqf-ruler/baseDstu3/DiagnosticReport/DiagnosticReport-273917",
      "resource": {
        "resourceType": "DiagnosticReport",
        "id": "DiagnosticReport-273917",
        "status": "final",
        "code": {
          "coding": [
            {
              "system": "http://loinc.org",
              "code": "8716-3",
              "display": "Vital Signs Panel"
            }
          ]
        },
        "subject": {
          "reference": "Patient/Patient-6554",
          "display": "Olga Grace Dunlap"
        },
        "context": {
          "reference": "Encounter/Encounter-1052",
          "display": "Wellness Visit"
        },
        "effectivePeriod": {
          "start": "2001-07-20T00:00:00-04:00",
          "end": "2001-07-20T00:00:00-04:00"
        },
        "issued": "2001-07-20T00:00:00.000-04:00",
        "result": [
          {
            "reference": "Observation/Observation-273918",
            "display": "Height"
          },
          {
            "reference": "Observation/Observation-273919",
            "display": "Weight"
          },
          {
            "reference": "Observation/Observation-273920",
            "display": "BMI"
          },
          {
            "reference": "Observation/Observation-273921",
            "display": "Temperature"
          },
          {
            "reference": "Observation/Observation-273922",
            "display": "Systolic Blood Pressure"
          },
          {
            "reference": "Observation/Observation-273923",
            "display": "Diastolic Blood Pressure"
          }
        ]
      },
      "request": {
        "method": "PUT",
        "url": "http://localhost:8080/cqf-ruler/baseDstu3/DiagnosticReport/DiagnosticReport-273917"
      }
    }
  ]
}