{
  "resourceType": "Bundle",
  "id": "Renee-Yu-Cabrera-6492-Encounter-3098",
  "type": "transaction",
  "entry": [
    {
      "fullUrl": "http://localhost:8080/cqf-ruler/baseDstu3/Encounter/Encounter-3098",
      "resource": {
        "resourceType": "Encounter",
        "id": "Encounter-3098",
        "status": "finished",
        "class": {
          "system": "http://hl7.org/fhir/encounter-class",
          "code": "inpatient",
          "display": "Inpatient"
        },
        "subject": {
          "reference": "Patient/Patient-6492",
          "display": "Renee Yu Cabrera"
        },
        "participant": [
          {
            "period": {
              "start": "2000-11-30T00:47:00-05:00",
              "end": "2000-11-30T04:47:00-05:00"
            },
            "individual": {
              "reference": "Practitioner/Practitioner-2533",
              "display": "Lena Dickerson Ballard MD"
            }
          }
        ],
        "period": {
          "start": "2000-11-30T00:47:00-05:00",
          "end": "2000-11-30T04:47:00-05:00"
        },
        "location": [
          {
            "location": {
              "reference": "Location/Location-1001",
              "display": "Windward General Hospital"
            }
          }
        ],
        "serviceProvider": {
          "reference": "Organization/Organization-1001",
          "display": "Windward General Hospital"
        }
      },
      "request": {
        "method": "PUT",
        "url": "http://localhost:8080/cqf-ruler/baseDstu3/Encounter/Encounter-3098"
      }
    },
    {
      "fullUrl": "http://localhost:8080/cqf-ruler/baseDstu3/Procedure/Procedure-652594",
      "resource": {
        "resourceType": "Procedure",
        "id": "Procedure-652594",
        "status": "completed",
        "code": {
          "coding": [
            {
              "system": "https://www.cms.gov/Medicare/Coding/ICD10/index.html",
              "code": "0DTE0ZZ",
              "display": "Resection of Large Intestine, Open Approach"
            }
          ]
        },
        "subject": {
          "reference": "Patient/Patient-6492",
          "display": "Renee Yu Cabrera"
        },
        "context": {
          "reference": "Encounter/Encounter-3098",
          "display": "Colectomy_Encounter"
        },
        "performedPeriod": {
          "start": "2000-11-30T04:47:00-05:00",
          "end": "2000-11-30T04:47:00-05:00"
        },
        "performer": [
          {
            "actor": {
              "reference": "Practitioner/Practitioner-2533",
              "display": "Lena Dickerson Ballard MD"
            }
          }
        ],
        "location": {
          "reference": "Location/Location-1001",
          "display": "Windward General Hospital"
        }
      },
      "request": {
        "method": "PUT",
        "url": "http://localhost:8080/cqf-ruler/baseDstu3/Procedure/Procedure-652594"
      }
    },
    {
      "fullUrl": "http://localhost:8080/cqf-ruler/baseDstu3/Observation/Observation-652597",
      "resource": {
        "resourceType": "Observation",
        "id": "Observation-652597",
        "status": "final",
        "code": {
          "coding": [
            {
              "system": "http://loinc.org",
              "code": "8302-2",
              "display": "Height"
            }
          ]
        },
        "subject": {
          "reference": "Patient/Patient-6492",
          "display": "Renee Yu Cabrera"
        },
        "context": {
          "reference": "Encounter/Encounter-3098",
          "display": "Colectomy_Encounter"
        },
        "effectiveDateTime": "2000-11-30T00:47:00-05:00",
        "performer": [
          {
            "reference": "Practitioner/Practitioner-2533",
            "display": "Lena Dickerson Ballard MD"
          }
        ],
        "valueQuantity": {
          "value": 167.7,
          "unit": "cm"
        }
      },
      "request": {
        "method": "PUT",
        "url": "http://localhost:8080/cqf-ruler/baseDstu3/Observation/Observation-652597"
      }
    },
    {
      "fullUrl": "http://localhost:8080/cqf-ruler/baseDstu3/Observation/Observation-652598",
      "resource": {
        "resourceType": "Observation",
        "id": "Observation-652598",
        "status": "final",
        "code": {
          "coding": [
            {
              "system": "http://loinc.org",
              "code": "29463-7",
              "display": "Weight"
            }
          ]
        },
        "subject": {
          "reference": "Patient/Patient-6492",
          "display": "Renee Yu Cabrera"
        },
        "context": {
          "reference": "Encounter/Encounter-3098",
          "display": "Colectomy_Encounter"
        },
        "effectiveDateTime": "2000-11-30T00:47:00-05:00",
        "performer": [
          {
            "reference": "Practitioner/Practitioner-2533",
            "display": "Lena Dickerson Ballard MD"
          }
        ],
        "valueQuantity": {
          "value": 99.57714506146851,
          "unit": "kg"
        }
      },
      "request": {
        "method": "PUT",
        "url": "http://localhost:8080/cqf-ruler/baseDstu3/Observation/Observation-652598"
      }
    },
    {
      "fullUrl": "http://localhost:8080/cqf-ruler/baseDstu3/Observation/Observation-652599",
      "resource": {
        "resourceType": "Observation",
        "id": "Observation-652599",
        "status": "final",
        "code": {
          "coding": [
            {
              "system": "http://loinc.org",
              "code": "39156-5",
              "display": "BMI"
            }
          ]
        },
        "subject": {
          "reference": "Patient/Patient-6492",
          "display": "Renee Yu Cabrera"
        },
        "context": {
          "reference": "Encounter/Encounter-3098",
          "display": "Colectomy_Encounter"
        },
        "effectiveDateTime": "2000-11-30T00:47:00-05:00",
        "performer": [
          {
            "reference": "Practitioner/Practitioner-2533",
            "display": "Lena Dickerson Ballard MD"
          }
        ],
        "valueQuantity": {
          "value": 35.40735990044854,
          "unit": "kg/m2"
        }
      },
      "request": {
        "method": "PUT",
        "url": "http://localhost:8080/cqf-ruler/baseDstu3/Observation/Observation-652599"
      }
    },
    {
      "fullUrl": "http://localhost:8080/cqf-ruler/baseDstu3/Observation/Observation-652600",
      "resource": {
        "resourceType": "Observation",
        "id": "Observation-652600",
        "status": "final",
        "code": {
          "coding": [
            {
              "system": "http://loinc.org",
              "code": "8310-5",
              "display": "Temperature"
            }
          ]
        },
        "subject": {
          "reference": "Patient/Patient-6492",
          "display": "Renee Yu Cabrera"
        },
        "context": {
          "reference": "Encounter/Encounter-3098",
          "display": "Colectomy_Encounter"
        },
        "effectiveDateTime": "2000-11-30T00:47:00-05:00",
        "performer": [
          {
            "reference": "Practitioner/Practitioner-2533",
            "display": "Lena Dickerson Ballard MD"
          }
        ],
        "valueQuantity": {
          "value": 37.0,
          "unit": "C"
        }
      },
      "request": {
        "method": "PUT",
        "url": "http://localhost:8080/cqf-ruler/baseDstu3/Observation/Observation-652600"
      }
    },
    {
      "fullUrl": "http://localhost:8080/cqf-ruler/baseDstu3/Observation/Observation-652601",
      "resource": {
        "resourceType": "Observation",
        "id": "Observation-652601",
        "status": "final",
        "code": {
          "coding": [
            {
              "system": "http://loinc.org",
              "code": "8459-0",
              "display": "Systolic Blood Pressure"
            }
          ]
        },
        "subject": {
          "reference": "Patient/Patient-6492",
          "display": "Renee Yu Cabrera"
        },
        "context": {
          "reference": "Encounter/Encounter-3098",
          "display": "Colectomy_Encounter"
        },
        "effectiveDateTime": "2000-11-30T00:47:00-05:00",
        "performer": [
          {
            "reference": "Practitioner/Practitioner-2533",
            "display": "Lena Dickerson Ballard MD"
          }
        ],
        "valueQuantity": {
          "value": 172.96575654585357,
          "unit": "mmHg"
        }
      },
      "request": {
        "method": "PUT",
        "url": "http://localhost:8080/cqf-ruler/baseDstu3/Observation/Observation-652601"
      }
    },
    {
      "fullUrl": "http://localhost:8080/cqf-ruler/baseDstu3/Observation/Observation-652602",
      "resource": {
        "resourceType": "Observation",
        "id": "Observation-652602",
        "status": "final",
        "code": {
          "coding": [
            {
              "system": "http://loinc.org",
              "code": "8453-3",
              "display": "Diastolic Blood Pressure"
            }
          ]
        },
        "subject": {
          "reference": "Patient/Patient-6492",
          "display": "Renee Yu Cabrera"
        },
        "context": {
          "reference": "Encounter/Encounter-3098",
          "display": "Colectomy_Encounter"
        },
        "effectiveDateTime": "2000-11-30T00:47:00-05:00",
        "performer": [
          {
            "reference": "Practitioner/Practitioner-2533",
            "display": "Lena Dickerson Ballard MD"
          }
        ],
        "valueQuantity": {
          "value": 83.77327062183011,
          "unit": "mmHg"
        }
      },
      "request": {
        "method": "PUT",
        "url": "http://localhost:8080/cqf-ruler/baseDstu3/Observation/Observation-652602"
      }
    },
    {
      "fullUrl": "http://localhost:8080/cqf-ruler/baseDstu3/DiagnosticReport/DiagnosticReport-652596",
      "resource": {
        "resourceType": "DiagnosticReport",
        "id": "DiagnosticReport-652596",
        "status": "final",
        "code": {
          "coding": [
            {
              "system": "http://loinc.org",
              "code": "8716-3",
              "display": "Vital Signs Panel"
            }
          ]
        },
        "subject": {
          "reference": "Patient/Patient-6492",
          "display": "Renee Yu Cabrera"
        },
        "context": {
          "reference": "Encounter/Encounter-3098",
          "display": "Colectomy_Encounter"
        },
        "effectivePeriod": {
          "start": "2000-11-30T00:47:00-05:00",
          "end": "2000-11-30T00:47:00-05:00"
        },
        "issued": "2000-11-30T00:47:00.000-05:00",
        "result": [
          {
            "reference": "Observation/Observation-652597",
            "display": "Height"
          },
          {
            "reference": "Observation/Observation-652598",
            "display": "Weight"
          },
          {
            "reference": "Observation/Observation-652599",
            "display": "BMI"
          },
          {
            "reference": "Observation/Observation-652600",
            "display": "Temperature"
          },
          {
            "reference": "Observation/Observation-652601",
            "display": "Systolic Blood Pressure"
          },
          {
            "reference": "Observation/Observation-652602",
            "display": "Diastolic Blood Pressure"
          }
        ]
      },
      "request": {
        "method": "PUT",
        "url": "http://localhost:8080/cqf-ruler/baseDstu3/DiagnosticReport/DiagnosticReport-652596"
      }
    }
  ]
}