{
  "resourceType": "Bundle",
  "id": "Renee Yu Cabrera-6492-Encounter-2513",
  "type": "transaction",
  "entry": [
    {
      "fullUrl": "http://localhost:8080/cqf-ruler/baseDstu3/Encounter/Encounter-2513",
      "resource": {
        "resourceType": "Encounter",
        "id": "Encounter-2513",
        "status": "finished",
        "class": {
          "system": "http://hl7.org/fhir/encounter-class",
          "code": "outpatient",
          "display": "Inpatient"
        },
        "subject": {
          "reference": "Patient/Patient-6492",
          "display": "Renee Yu Cabrera"
        },
        "participant": [
          {
            "period": {
              "start": "2014-04-04T00:00:00-04:00",
              "end": "2014-04-04T00:00:00-04:00"
            },
            "individual": {
              "reference": "Practitioner/Practitioner-2529",
              "display": "Stanley Floyd Nielsen MD"
            }
          }
        ],
        "period": {
          "start": "2014-04-04T00:00:00-04:00",
          "end": "2014-04-04T00:00:00-04:00"
        },
        "location": [
          {
            "location": {
              "reference": "Location/Location-1102",
              "display": "Pediatric and Adult Medicine"
            }
          }
        ],
        "serviceProvider": {
          "reference": "Organization/Organization-1102",
          "display": "Pediatric and Adult Medicine"
        }
      },
      "request": {
        "method": "PUT",
        "url": "http://localhost:8080/cqf-ruler/baseDstu3/Encounter/Encounter-2513"
      }
    },
    {
      "fullUrl": "http://localhost:8080/cqf-ruler/baseDstu3/Immunization/Immunization-529092",
      "resource": {
        "resourceType": "Immunization",
        "id": "Immunization-529092",
        "status": "completed",
        "notGiven": false,
        "vaccineCode": {
          "coding": [
            {
              "system": "http://hl7.org/fhir/sid/cvx",
              "code": "140",
              "display": "Influenza, seasonal, injectable, preservative free"
            }
          ]
        },
        "patient": {
          "reference": "Patient/Patient-6492",
          "display": "Renee Yu Cabrera"
        },
        "date": "2014-04-04T00:00:00-04:00",
        "primarySource": true,
        "location": {
          "reference": "Location/Location-1102",
          "display": "Pediatric and Adult Medicine"
        },
        "practitioner": [
          {
            "actor": {
              "reference": "Practitioner/Practitioner-2529",
              "display": "Stanley Floyd Nielsen MD"
            }
          }
        ]
      },
      "request": {
        "method": "PUT",
        "url": "http://localhost:8080/cqf-ruler/baseDstu3/Immunization/Immunization-529092"
      }
    },
    {
      "fullUrl": "http://localhost:8080/cqf-ruler/baseDstu3/Procedure/Procedure-555951",
      "resource": {
        "resourceType": "Procedure",
        "id": "Procedure-555951",
        "status": "completed",
        "code": {
          "coding": [
            {
              "system": "http://www.ama-assn.org/go/cpt",
              "code": "82270",
              "display": "Blood, occult, by peroxidase activity (eg, guaiac), qualitative; feces, consecutive collected specimens with single determination, for colorectal neoplasm screening (ie, patient was provided 3 cards or single triple card for consecutive collection)"
            }
          ]
        },
        "subject": {
          "reference": "Patient/Patient-6492",
          "display": "Renee Yu Cabrera"
        },
        "context": {
          "reference": "Encounter/Encounter-2513",
          "display": "Pediatric and Adult Medicine"
        },
        "performedPeriod": {
          "start": "2014-04-04T00:00:00-04:00",
          "end": "2014-04-04T00:00:00-04:00"
        },
        "performer": [
          {
            "actor": {
              "reference": "Practitioner/Practitioner-2529",
              "display": "Stanley Floyd Nielsen MD"
            }
          }
        ],
        "location": {
          "reference": "Location/Location-1102",
          "display": "Pediatric and Adult Medicine"
        }
      },
      "request": {
        "method": "PUT",
        "url": "http://localhost:8080/cqf-ruler/baseDstu3/Procedure/Procedure-555951"
      }
    },
    {
      "fullUrl": "http://localhost:8080/cqf-ruler/baseDstu3/Observation/Observation-555952",
      "resource": {
        "resourceType": "Observation",
        "id": "Observation-555952",
        "status": "final",
        "code": {
          "coding": [
            {
              "system": "http://www.ama-assn.org/go/cpt",
              "code": "82274",
              "display": "Blood, occult, by fecal hemoglobin determination by immunoassay, qualitative, feces, 1-3 simultaneous determinations"
            }
          ]
        },
        "subject": {
          "reference": "Patient/Patient-6492",
          "display": "Renee Yu Cabrera"
        },
        "context": {
          "reference": "Encounter/Encounter-2513",
          "display": "Pediatric and Adult Medicine"
        },
        "effectivePeriod": {
          "start": "2014-04-04T00:00:00-04:00",
          "end": "2014-04-04T00:00:00-04:00"
        },
        "performer": [
          {
            "reference": "Practitioner/Practitioner-2529",
            "display": "Stanley Floyd Nielsen MD"
          }
        ],
        "valueString": "NEGATIVE"
      },
      "request": {
        "method": "PUT",
        "url": "http://localhost:8080/cqf-ruler/baseDstu3/Observation/Observation-555952"
      }
    },
    {
      "fullUrl": "http://localhost:8080/cqf-ruler/baseDstu3/Observation/Observation-555954",
      "resource": {
        "resourceType": "Observation",
        "id": "Observation-555954",
        "status": "final",
        "code": {
          "coding": [
            {
              "system": "http://loinc.org",
              "code": "8302-2",
              "display": "Height"
            }
          ]
        },
        "subject": {
          "reference": "Patient/Patient-6492",
          "display": "Renee Yu Cabrera"
        },
        "context": {
          "reference": "Encounter/Encounter-2513",
          "display": "Pediatric and Adult Medicine"
        },
        "effectiveDateTime": "2014-04-04T00:00:00-04:00",
        "performer": [
          {
            "reference": "Practitioner/Practitioner-2529",
            "display": "Stanley Floyd Nielsen MD"
          }
        ],
        "valueQuantity": {
          "value": 167.7,
          "unit": "cm"
        }
      },
      "request": {
        "method": "PUT",
        "url": "http://localhost:8080/cqf-ruler/baseDstu3/Observation/Observation-555954"
      }
    },
    {
      "fullUrl": "http://localhost:8080/cqf-ruler/baseDstu3/Observation/Observation-555955",
      "resource": {
        "resourceType": "Observation",
        "id": "Observation-555955",
        "status": "final",
        "code": {
          "coding": [
            {
              "system": "http://loinc.org",
              "code": "29463-7",
              "display": "Weight"
            }
          ]
        },
        "subject": {
          "reference": "Patient/Patient-6492",
          "display": "Renee Yu Cabrera"
        },
        "context": {
          "reference": "Encounter/Encounter-2513",
          "display": "Pediatric and Adult Medicine"
        },
        "effectiveDateTime": "2014-04-04T00:00:00-04:00",
        "performer": [
          {
            "reference": "Practitioner/Practitioner-2529",
            "display": "Stanley Floyd Nielsen MD"
          }
        ],
        "valueQuantity": {
          "value": 129.71241633639056,
          "unit": "kg"
        }
      },
      "request": {
        "method": "PUT",
        "url": "http://localhost:8080/cqf-ruler/baseDstu3/Observation/Observation-555955"
      }
    },
    {
      "fullUrl": "http://localhost:8080/cqf-ruler/baseDstu3/Observation/Observation-555956",
      "resource": {
        "resourceType": "Observation",
        "id": "Observation-555956",
        "status": "final",
        "code": {
          "coding": [
            {
              "system": "http://loinc.org",
              "code": "39156-5",
              "display": "BMI"
            }
          ]
        },
        "subject": {
          "reference": "Patient/Patient-6492",
          "display": "Renee Yu Cabrera"
        },
        "context": {
          "reference": "Encounter/Encounter-2513",
          "display": "Pediatric and Adult Medicine"
        },
        "effectiveDateTime": "2014-04-04T00:00:00-04:00",
        "performer": [
          {
            "reference": "Practitioner/Practitioner-2529",
            "display": "Stanley Floyd Nielsen MD"
          }
        ],
        "valueQuantity": {
          "value": 46.12277451762955,
          "unit": "kg/m2"
        }
      },
      "request": {
        "method": "PUT",
        "url": "http://localhost:8080/cqf-ruler/baseDstu3/Observation/Observation-555956"
      }
    },
    {
      "fullUrl": "http://localhost:8080/cqf-ruler/baseDstu3/Observation/Observation-555957",
      "resource": {
        "resourceType": "Observation",
        "id": "Observation-555957",
        "status": "final",
        "code": {
          "coding": [
            {
              "system": "http://loinc.org",
              "code": "8310-5",
              "display": "Temperature"
            }
          ]
        },
        "subject": {
          "reference": "Patient/Patient-6492",
          "display": "Renee Yu Cabrera"
        },
        "context": {
          "reference": "Encounter/Encounter-2513",
          "display": "Pediatric and Adult Medicine"
        },
        "effectiveDateTime": "2014-04-04T00:00:00-04:00",
        "performer": [
          {
            "reference": "Practitioner/Practitioner-2529",
            "display": "Stanley Floyd Nielsen MD"
          }
        ],
        "valueQuantity": {
          "value": 37.0,
          "unit": "C"
        }
      },
      "request": {
        "method": "PUT",
        "url": "http://localhost:8080/cqf-ruler/baseDstu3/Observation/Observation-555957"
      }
    },
    {
      "fullUrl": "http://localhost:8080/cqf-ruler/baseDstu3/Observation/Observation-555958",
      "resource": {
        "resourceType": "Observation",
        "id": "Observation-555958",
        "status": "final",
        "code": {
          "coding": [
            {
              "system": "http://loinc.org",
              "code": "8459-0",
              "display": "Systolic Blood Pressure"
            }
          ]
        },
        "subject": {
          "reference": "Patient/Patient-6492",
          "display": "Renee Yu Cabrera"
        },
        "context": {
          "reference": "Encounter/Encounter-2513",
          "display": "Pediatric and Adult Medicine"
        },
        "effectiveDateTime": "2014-04-04T00:00:00-04:00",
        "performer": [
          {
            "reference": "Practitioner/Practitioner-2529",
            "display": "Stanley Floyd Nielsen MD"
          }
        ],
        "valueQuantity": {
          "value": 112.86423767168581,
          "unit": "mmHg"
        }
      },
      "request": {
        "method": "PUT",
        "url": "http://localhost:8080/cqf-ruler/baseDstu3/Observation/Observation-555958"
      }
    },
    {
      "fullUrl": "http://localhost:8080/cqf-ruler/baseDstu3/Observation/Observation-555959",
      "resource": {
        "resourceType": "Observation",
        "id": "Observation-555959",
        "status": "final",
        "code": {
          "coding": [
            {
              "system": "http://loinc.org",
              "code": "8453-3",
              "display": "Diastolic Blood Pressure"
            }
          ]
        },
        "subject": {
          "reference": "Patient/Patient-6492",
          "display": "Renee Yu Cabrera"
        },
        "context": {
          "reference": "Encounter/Encounter-2513",
          "display": "Pediatric and Adult Medicine"
        },
        "effectiveDateTime": "2014-04-04T00:00:00-04:00",
        "performer": [
          {
            "reference": "Practitioner/Practitioner-2529",
            "display": "Stanley Floyd Nielsen MD"
          }
        ],
        "valueQuantity": {
          "value": 75.65852505957011,
          "unit": "mmHg"
        }
      },
      "request": {
        "method": "PUT",
        "url": "http://localhost:8080/cqf-ruler/baseDstu3/Observation/Observation-555959"
      }
    },
    {
      "fullUrl": "http://localhost:8080/cqf-ruler/baseDstu3/DiagnosticReport/DiagnosticReport-555953",
      "resource": {
        "resourceType": "DiagnosticReport",
        "id": "DiagnosticReport-555953",
        "status": "final",
        "code": {
          "coding": [
            {
              "system": "http://loinc.org",
              "code": "8716-3",
              "display": "Vital Signs Panel"
            }
          ]
        },
        "subject": {
          "reference": "Patient/Patient-6492",
          "display": "Renee Yu Cabrera"
        },
        "context": {
          "reference": "Encounter/Encounter-2513",
          "display": "Pediatric and Adult Medicine"
        },
        "effectivePeriod": {
          "start": "2014-04-04T00:00:00-04:00",
          "end": "2014-04-04T00:00:00-04:00"
        },
        "issued": "2014-04-04T00:00:00.000-04:00",
        "result": [
          {
            "reference": "Observation/Observation-555954",
            "display": "Height"
          },
          {
            "reference": "Observation/Observation-555955",
            "display": "Weight"
          },
          {
            "reference": "Observation/Observation-555956",
            "display": "BMI"
          },
          {
            "reference": "Observation/Observation-555957",
            "display": "Temperature"
          },
          {
            "reference": "Observation/Observation-555958",
            "display": "Systolic Blood Pressure"
          },
          {
            "reference": "Observation/Observation-555959",
            "display": "Diastolic Blood Pressure"
          }
        ]
      },
      "request": {
        "method": "PUT",
        "url": "http://localhost:8080/cqf-ruler/baseDstu3/DiagnosticReport/DiagnosticReport-555953"
      }
    }
  ]
}