{
  "resourceType": "Bundle",
  "id": "Russell-Dominguez-Lambert-6495-Encounter-384",
  "type": "transaction",
  "entry": [
    {
      "fullUrl": "http://localhost:8080/cqf-ruler/baseDstu3/Encounter/Encounter-384",
      "resource": {
        "resourceType": "Encounter",
        "id": "Encounter-384",
        "status": "finished",
        "class": {
          "system": "http://hl7.org/fhir/encounter-class",
          "code": "outpatient",
          "display": "Inpatient"
        },
        "subject": {
          "reference": "Patient/Patient-6495",
          "display": "Russell Dominguez Lambert"
        },
        "participant": [
          {
            "period": {
              "start": "1989-12-31T10:00:00-05:00",
              "end": "1989-12-31T10:00:00-05:00"
            },
            "individual": {
              "reference": "Practitioner/Practitioner-2532",
              "display": "Chad Espinoza Potter MD"
            }
          }
        ],
        "period": {
          "start": "1989-12-31T10:00:00-05:00",
          "end": "1989-12-31T10:00:00-05:00"
        },
        "location": [
          {
            "location": {
              "reference": "Location/Location-1105",
              "display": "Bayside Medical Group"
            }
          }
        ],
        "serviceProvider": {
          "reference": "Organization/Organization-1105",
          "display": "Bayside Medical Group"
        }
      },
      "request": {
        "method": "PUT",
        "url": "http://localhost:8080/cqf-ruler/baseDstu3/Encounter/Encounter-384"
      }
    },
    {
      "fullUrl": "http://localhost:8080/cqf-ruler/baseDstu3/Immunization/Immunization-36589",
      "resource": {
        "resourceType": "Immunization",
        "id": "Immunization-36589",
        "status": "completed",
        "notGiven": false,
        "vaccineCode": {
          "coding": [
            {
              "system": "http://hl7.org/fhir/sid/cvx",
              "code": "08",
              "display": "Hep B, adolescent or pediatric"
            }
          ]
        },
        "patient": {
          "reference": "Patient/Patient-6495",
          "display": "Russell Dominguez Lambert"
        },
        "date": "1989-12-31T10:00:00-05:00",
        "primarySource": true,
        "location": {
          "reference": "Location/Location-1105",
          "display": "Bayside Medical Group"
        },
        "practitioner": [
          {
            "actor": {
              "reference": "Practitioner/Practitioner-2532",
              "display": "Chad Espinoza Potter MD"
            }
          }
        ]
      },
      "request": {
        "method": "PUT",
        "url": "http://localhost:8080/cqf-ruler/baseDstu3/Immunization/Immunization-36589"
      }
    },
    {
      "fullUrl": "http://localhost:8080/cqf-ruler/baseDstu3/Observation/Observation-36591",
      "resource": {
        "resourceType": "Observation",
        "id": "Observation-36591",
        "status": "final",
        "code": {
          "coding": [
            {
              "system": "http://loinc.org",
              "code": "8302-2",
              "display": "Height"
            }
          ]
        },
        "subject": {
          "reference": "Patient/Patient-6495",
          "display": "Russell Dominguez Lambert"
        },
        "context": {
          "reference": "Encounter/Encounter-384",
          "display": "Wellness Visit"
        },
        "effectiveDateTime": "1989-12-31T10:00:00-05:00",
        "performer": [
          {
            "reference": "Practitioner/Practitioner-2532",
            "display": "Chad Espinoza Potter MD"
          }
        ],
        "valueQuantity": {
          "value": 50.0,
          "unit": "cm"
        }
      },
      "request": {
        "method": "PUT",
        "url": "http://localhost:8080/cqf-ruler/baseDstu3/Observation/Observation-36591"
      }
    },
    {
      "fullUrl": "http://localhost:8080/cqf-ruler/baseDstu3/Observation/Observation-36592",
      "resource": {
        "resourceType": "Observation",
        "id": "Observation-36592",
        "status": "final",
        "code": {
          "coding": [
            {
              "system": "http://loinc.org",
              "code": "29463-7",
              "display": "Weight"
            }
          ]
        },
        "subject": {
          "reference": "Patient/Patient-6495",
          "display": "Russell Dominguez Lambert"
        },
        "context": {
          "reference": "Encounter/Encounter-384",
          "display": "Wellness Visit"
        },
        "effectiveDateTime": "1989-12-31T10:00:00-05:00",
        "performer": [
          {
            "reference": "Practitioner/Practitioner-2532",
            "display": "Chad Espinoza Potter MD"
          }
        ],
        "valueQuantity": {
          "value": 3.9,
          "unit": "kg"
        }
      },
      "request": {
        "method": "PUT",
        "url": "http://localhost:8080/cqf-ruler/baseDstu3/Observation/Observation-36592"
      }
    },
    {
      "fullUrl": "http://localhost:8080/cqf-ruler/baseDstu3/Observation/Observation-36593",
      "resource": {
        "resourceType": "Observation",
        "id": "Observation-36593",
        "status": "final",
        "code": {
          "coding": [
            {
              "system": "http://loinc.org",
              "code": "39156-5",
              "display": "BMI"
            }
          ]
        },
        "subject": {
          "reference": "Patient/Patient-6495",
          "display": "Russell Dominguez Lambert"
        },
        "context": {
          "reference": "Encounter/Encounter-384",
          "display": "Wellness Visit"
        },
        "effectiveDateTime": "1989-12-31T10:00:00-05:00",
        "performer": [
          {
            "reference": "Practitioner/Practitioner-2532",
            "display": "Chad Espinoza Potter MD"
          }
        ],
        "valueQuantity": {
          "value": 15.6,
          "unit": "kg/m2"
        }
      },
      "request": {
        "method": "PUT",
        "url": "http://localhost:8080/cqf-ruler/baseDstu3/Observation/Observation-36593"
      }
    },
    {
      "fullUrl": "http://localhost:8080/cqf-ruler/baseDstu3/Observation/Observation-36594",
      "resource": {
        "resourceType": "Observation",
        "id": "Observation-36594",
        "status": "final",
        "code": {
          "coding": [
            {
              "system": "http://loinc.org",
              "code": "8310-5",
              "display": "Temperature"
            }
          ]
        },
        "subject": {
          "reference": "Patient/Patient-6495",
          "display": "Russell Dominguez Lambert"
        },
        "context": {
          "reference": "Encounter/Encounter-384",
          "display": "Wellness Visit"
        },
        "effectiveDateTime": "1989-12-31T10:00:00-05:00",
        "performer": [
          {
            "reference": "Practitioner/Practitioner-2532",
            "display": "Chad Espinoza Potter MD"
          }
        ],
        "valueQuantity": {
          "value": 37.0,
          "unit": "C"
        }
      },
      "request": {
        "method": "PUT",
        "url": "http://localhost:8080/cqf-ruler/baseDstu3/Observation/Observation-36594"
      }
    },
    {
      "fullUrl": "http://localhost:8080/cqf-ruler/baseDstu3/Observation/Observation-36595",
      "resource": {
        "resourceType": "Observation",
        "id": "Observation-36595",
        "status": "final",
        "code": {
          "coding": [
            {
              "system": "http://loinc.org",
              "code": "8459-0",
              "display": "Systolic Blood Pressure"
            }
          ]
        },
        "subject": {
          "reference": "Patient/Patient-6495",
          "display": "Russell Dominguez Lambert"
        },
        "context": {
          "reference": "Encounter/Encounter-384",
          "display": "Wellness Visit"
        },
        "effectiveDateTime": "1989-12-31T10:00:00-05:00",
        "performer": [
          {
            "reference": "Practitioner/Practitioner-2532",
            "display": "Chad Espinoza Potter MD"
          }
        ],
        "valueQuantity": {
          "value": 169.0576654592453,
          "unit": "mmHg"
        }
      },
      "request": {
        "method": "PUT",
        "url": "http://localhost:8080/cqf-ruler/baseDstu3/Observation/Observation-36595"
      }
    },
    {
      "fullUrl": "http://localhost:8080/cqf-ruler/baseDstu3/Observation/Observation-36596",
      "resource": {
        "resourceType": "Observation",
        "id": "Observation-36596",
        "status": "final",
        "code": {
          "coding": [
            {
              "system": "http://loinc.org",
              "code": "8453-3",
              "display": "Diastolic Blood Pressure"
            }
          ]
        },
        "subject": {
          "reference": "Patient/Patient-6495",
          "display": "Russell Dominguez Lambert"
        },
        "context": {
          "reference": "Encounter/Encounter-384",
          "display": "Wellness Visit"
        },
        "effectiveDateTime": "1989-12-31T10:00:00-05:00",
        "performer": [
          {
            "reference": "Practitioner/Practitioner-2532",
            "display": "Chad Espinoza Potter MD"
          }
        ],
        "valueQuantity": {
          "value": 61.04332979758225,
          "unit": "mmHg"
        }
      },
      "request": {
        "method": "PUT",
        "url": "http://localhost:8080/cqf-ruler/baseDstu3/Observation/Observation-36596"
      }
    },
    {
      "fullUrl": "http://localhost:8080/cqf-ruler/baseDstu3/DiagnosticReport/DiagnosticReport-36590",
      "resource": {
        "resourceType": "DiagnosticReport",
        "id": "DiagnosticReport-36590",
        "status": "final",
        "code": {
          "coding": [
            {
              "system": "http://loinc.org",
              "code": "8716-3",
              "display": "Vital Signs Panel"
            }
          ]
        },
        "subject": {
          "reference": "Patient/Patient-6495",
          "display": "Russell Dominguez Lambert"
        },
        "context": {
          "reference": "Encounter/Encounter-384",
          "display": "Wellness Visit"
        },
        "effectivePeriod": {
          "start": "1989-12-31T10:00:00-05:00",
          "end": "1989-12-31T10:00:00-05:00"
        },
        "issued": "1989-12-31T10:00:00.000-05:00",
        "result": [
          {
            "reference": "Observation/Observation-36591",
            "display": "Height"
          },
          {
            "reference": "Observation/Observation-36592",
            "display": "Weight"
          },
          {
            "reference": "Observation/Observation-36593",
            "display": "BMI"
          },
          {
            "reference": "Observation/Observation-36594",
            "display": "Temperature"
          },
          {
            "reference": "Observation/Observation-36595",
            "display": "Systolic Blood Pressure"
          },
          {
            "reference": "Observation/Observation-36596",
            "display": "Diastolic Blood Pressure"
          }
        ]
      },
      "request": {
        "method": "PUT",
        "url": "http://localhost:8080/cqf-ruler/baseDstu3/DiagnosticReport/DiagnosticReport-36590"
      }
    }
  ]
}