{
  "resourceType": "Bundle",
  "id": "Russell Dominguez Lambert-6495-Encounter-1400",
  "type": "transaction",
  "entry": [
    {
      "fullUrl": "http://localhost:8080/cqf-ruler/baseDstu3/Encounter/Encounter-1400",
      "resource": {
        "resourceType": "Encounter",
        "id": "Encounter-1400",
        "status": "finished",
        "class": {
          "system": "http://hl7.org/fhir/encounter-class",
          "code": "outpatient",
          "display": "Inpatient"
        },
        "subject": {
          "reference": "Patient/Patient-6495",
          "display": "Russell Dominguez Lambert"
        },
        "participant": [
          {
            "period": {
              "start": "2003-01-24T06:00:00-05:00",
              "end": "2003-01-24T06:00:00-05:00"
            },
            "individual": {
              "reference": "Practitioner/Practitioner-2532",
              "display": "Chad Espinoza Potter MD"
            }
          }
        ],
        "period": {
          "start": "2003-01-24T06:00:00-05:00",
          "end": "2003-01-24T06:00:00-05:00"
        },
        "location": [
          {
            "location": {
              "reference": "Location/Location-1105",
              "display": "Bayside Medical Group"
            }
          }
        ],
        "serviceProvider": {
          "reference": "Organization/Organization-1105",
          "display": "Bayside Medical Group"
        }
      },
      "request": {
        "method": "PUT",
        "url": "http://localhost:8080/cqf-ruler/baseDstu3/Encounter/Encounter-1400"
      }
    },
    {
      "fullUrl": "http://localhost:8080/cqf-ruler/baseDstu3/Immunization/Immunization-275741",
      "resource": {
        "resourceType": "Immunization",
        "id": "Immunization-275741",
        "status": "completed",
        "notGiven": false,
        "vaccineCode": {
          "coding": [
            {
              "system": "http://hl7.org/fhir/sid/cvx",
              "code": "140",
              "display": "Influenza, seasonal, injectable, preservative free"
            }
          ]
        },
        "patient": {
          "reference": "Patient/Patient-6495",
          "display": "Russell Dominguez Lambert"
        },
        "date": "2003-01-24T06:00:00-05:00",
        "primarySource": true,
        "location": {
          "reference": "Location/Location-1105",
          "display": "Bayside Medical Group"
        },
        "practitioner": [
          {
            "actor": {
              "reference": "Practitioner/Practitioner-2532",
              "display": "Chad Espinoza Potter MD"
            }
          }
        ]
      },
      "request": {
        "method": "PUT",
        "url": "http://localhost:8080/cqf-ruler/baseDstu3/Immunization/Immunization-275741"
      }
    },
    {
      "fullUrl": "http://localhost:8080/cqf-ruler/baseDstu3/Immunization/Immunization-275742",
      "resource": {
        "resourceType": "Immunization",
        "id": "Immunization-275742",
        "status": "completed",
        "notGiven": false,
        "vaccineCode": {
          "coding": [
            {
              "system": "http://hl7.org/fhir/sid/cvx",
              "code": "62",
              "display": "HPV, quadrivalent"
            }
          ]
        },
        "patient": {
          "reference": "Patient/Patient-6495",
          "display": "Russell Dominguez Lambert"
        },
        "date": "2003-01-24T06:00:00-05:00",
        "primarySource": true,
        "location": {
          "reference": "Location/Location-1105",
          "display": "Bayside Medical Group"
        },
        "practitioner": [
          {
            "actor": {
              "reference": "Practitioner/Practitioner-2532",
              "display": "Chad Espinoza Potter MD"
            }
          }
        ]
      },
      "request": {
        "method": "PUT",
        "url": "http://localhost:8080/cqf-ruler/baseDstu3/Immunization/Immunization-275742"
      }
    },
    {
      "fullUrl": "http://localhost:8080/cqf-ruler/baseDstu3/Observation/Observation-297155",
      "resource": {
        "resourceType": "Observation",
        "id": "Observation-297155",
        "status": "final",
        "code": {
          "coding": [
            {
              "system": "http://loinc.org",
              "code": "8302-2",
              "display": "Height"
            }
          ]
        },
        "subject": {
          "reference": "Patient/Patient-6495",
          "display": "Russell Dominguez Lambert"
        },
        "context": {
          "reference": "Encounter/Encounter-1400",
          "display": "Bayside Medical Group"
        },
        "effectiveDateTime": "2003-01-24T06:00:00-05:00",
        "performer": [
          {
            "reference": "Practitioner/Practitioner-2532",
            "display": "Chad Espinoza Potter MD"
          }
        ],
        "valueQuantity": {
          "value": 155.8,
          "unit": "cm"
        }
      },
      "request": {
        "method": "PUT",
        "url": "http://localhost:8080/cqf-ruler/baseDstu3/Observation/Observation-297155"
      }
    },
    {
      "fullUrl": "http://localhost:8080/cqf-ruler/baseDstu3/Observation/Observation-297156",
      "resource": {
        "resourceType": "Observation",
        "id": "Observation-297156",
        "status": "final",
        "code": {
          "coding": [
            {
              "system": "http://loinc.org",
              "code": "29463-7",
              "display": "Weight"
            }
          ]
        },
        "subject": {
          "reference": "Patient/Patient-6495",
          "display": "Russell Dominguez Lambert"
        },
        "context": {
          "reference": "Encounter/Encounter-1400",
          "display": "Bayside Medical Group"
        },
        "effectiveDateTime": "2003-01-24T06:00:00-05:00",
        "performer": [
          {
            "reference": "Practitioner/Practitioner-2532",
            "display": "Chad Espinoza Potter MD"
          }
        ],
        "valueQuantity": {
          "value": 0.0,
          "unit": "kg"
        }
      },
      "request": {
        "method": "PUT",
        "url": "http://localhost:8080/cqf-ruler/baseDstu3/Observation/Observation-297156"
      }
    },
    {
      "fullUrl": "http://localhost:8080/cqf-ruler/baseDstu3/Observation/Observation-297157",
      "resource": {
        "resourceType": "Observation",
        "id": "Observation-297157",
        "status": "final",
        "code": {
          "coding": [
            {
              "system": "http://loinc.org",
              "code": "39156-5",
              "display": "BMI"
            }
          ]
        },
        "subject": {
          "reference": "Patient/Patient-6495",
          "display": "Russell Dominguez Lambert"
        },
        "context": {
          "reference": "Encounter/Encounter-1400",
          "display": "Bayside Medical Group"
        },
        "effectiveDateTime": "2003-01-24T06:00:00-05:00",
        "performer": [
          {
            "reference": "Practitioner/Practitioner-2532",
            "display": "Chad Espinoza Potter MD"
          }
        ],
        "valueQuantity": {
          "value": 0.0,
          "unit": "kg/m2"
        }
      },
      "request": {
        "method": "PUT",
        "url": "http://localhost:8080/cqf-ruler/baseDstu3/Observation/Observation-297157"
      }
    },
    {
      "fullUrl": "http://localhost:8080/cqf-ruler/baseDstu3/Observation/Observation-297158",
      "resource": {
        "resourceType": "Observation",
        "id": "Observation-297158",
        "status": "final",
        "code": {
          "coding": [
            {
              "system": "http://loinc.org",
              "code": "8310-5",
              "display": "Temperature"
            }
          ]
        },
        "subject": {
          "reference": "Patient/Patient-6495",
          "display": "Russell Dominguez Lambert"
        },
        "context": {
          "reference": "Encounter/Encounter-1400",
          "display": "Bayside Medical Group"
        },
        "effectiveDateTime": "2003-01-24T06:00:00-05:00",
        "performer": [
          {
            "reference": "Practitioner/Practitioner-2532",
            "display": "Chad Espinoza Potter MD"
          }
        ],
        "valueQuantity": {
          "value": 37.0,
          "unit": "C"
        }
      },
      "request": {
        "method": "PUT",
        "url": "http://localhost:8080/cqf-ruler/baseDstu3/Observation/Observation-297158"
      }
    },
    {
      "fullUrl": "http://localhost:8080/cqf-ruler/baseDstu3/Observation/Observation-297159",
      "resource": {
        "resourceType": "Observation",
        "id": "Observation-297159",
        "status": "final",
        "code": {
          "coding": [
            {
              "system": "http://loinc.org",
              "code": "8459-0",
              "display": "Systolic Blood Pressure"
            }
          ]
        },
        "subject": {
          "reference": "Patient/Patient-6495",
          "display": "Russell Dominguez Lambert"
        },
        "context": {
          "reference": "Encounter/Encounter-1400",
          "display": "Bayside Medical Group"
        },
        "effectiveDateTime": "2003-01-24T06:00:00-05:00",
        "performer": [
          {
            "reference": "Practitioner/Practitioner-2532",
            "display": "Chad Espinoza Potter MD"
          }
        ],
        "valueQuantity": {
          "value": 110.990838810622,
          "unit": "mmHg"
        }
      },
      "request": {
        "method": "PUT",
        "url": "http://localhost:8080/cqf-ruler/baseDstu3/Observation/Observation-297159"
      }
    },
    {
      "fullUrl": "http://localhost:8080/cqf-ruler/baseDstu3/Observation/Observation-297160",
      "resource": {
        "resourceType": "Observation",
        "id": "Observation-297160",
        "status": "final",
        "code": {
          "coding": [
            {
              "system": "http://loinc.org",
              "code": "8453-3",
              "display": "Diastolic Blood Pressure"
            }
          ]
        },
        "subject": {
          "reference": "Patient/Patient-6495",
          "display": "Russell Dominguez Lambert"
        },
        "context": {
          "reference": "Encounter/Encounter-1400",
          "display": "Bayside Medical Group"
        },
        "effectiveDateTime": "2003-01-24T06:00:00-05:00",
        "performer": [
          {
            "reference": "Practitioner/Practitioner-2532",
            "display": "Chad Espinoza Potter MD"
          }
        ],
        "valueQuantity": {
          "value": 72.47160928573798,
          "unit": "mmHg"
        }
      },
      "request": {
        "method": "PUT",
        "url": "http://localhost:8080/cqf-ruler/baseDstu3/Observation/Observation-297160"
      }
    },
    {
      "fullUrl": "http://localhost:8080/cqf-ruler/baseDstu3/DiagnosticReport/DiagnosticReport-297154",
      "resource": {
        "resourceType": "DiagnosticReport",
        "id": "DiagnosticReport-297154",
        "status": "final",
        "code": {
          "coding": [
            {
              "system": "http://loinc.org",
              "code": "8716-3",
              "display": "Vital Signs Panel"
            }
          ]
        },
        "subject": {
          "reference": "Patient/Patient-6495",
          "display": "Russell Dominguez Lambert"
        },
        "context": {
          "reference": "Encounter/Encounter-1400",
          "display": "Bayside Medical Group"
        },
        "effectivePeriod": {
          "start": "2003-01-24T06:00:00-05:00",
          "end": "2003-01-24T06:00:00-05:00"
        },
        "issued": "2003-01-24T06:00:00.000-05:00",
        "result": [
          {
            "reference": "Observation/Observation-297155",
            "display": "Height"
          },
          {
            "reference": "Observation/Observation-297156",
            "display": "Weight"
          },
          {
            "reference": "Observation/Observation-297157",
            "display": "BMI"
          },
          {
            "reference": "Observation/Observation-297158",
            "display": "Temperature"
          },
          {
            "reference": "Observation/Observation-297159",
            "display": "Systolic Blood Pressure"
          },
          {
            "reference": "Observation/Observation-297160",
            "display": "Diastolic Blood Pressure"
          }
        ]
      },
      "request": {
        "method": "PUT",
        "url": "http://localhost:8080/cqf-ruler/baseDstu3/DiagnosticReport/DiagnosticReport-297154"
      }
    }
  ]
}