{
  "resourceType": "Bundle",
  "id": "load-patient-12218",
  "meta": {
    "versionId": "1",
    "lastUpdated": "2016-09-13T21:21:23.954+00:00"
  },
  "type": "transaction",
  "entry": [
    {
      "fullUrl": "http://localhost:8080/fhir/baseDstu2/Patient/Patient-12218",
      "resource": {
        "resourceType": "Patient",
        "id": "Patient-12218",
        "extension": [
          {
            "url": "http://hl7.org/fhir/StructureDefinition/us-core-race",
            "valueCodeableConcept": {
              "coding": [
                {
                  "system": "http://hl7.org/fhir/v3/Race",
                  "code": "2106-3",
                  "display": "White"
                }
              ]
            }
          },
          {
            "url": "http://hl7.org/fhir/StructureDefinition/us-core-ethnicity",
            "valueCodeableConcept": {
              "coding": [
                {
                  "system": "http://hl7.org/fhir/v3/Ethnicity",
                  "code": "2186-5",
                  "display": "Not Hispanic or Latino"
                }
              ]
            }
          },
          {
            "url": "http://hl7.org/fhir/StructureDefinition/us-core-religion",
            "valueCodeableConcept": {
              "coding": [
                {
                  "system": "http://hl7.org/fhir/v3/ReligiousAffiliation",
                  "code": "1041",
                  "display": "Roman Catholic Church"
                }
              ]
            }
          }
        ],
        "identifier": [
          {
            "use": "official",
            "type": {
              "coding": [
                {
                  "system": "http://hl7.org/fhir/identifier-type",
                  "code": "SB",
                  "display": "Social Beneficiary Identifier"
                }
              ],
              "text": "Michigan Common Key Service Identifier"
            },
            "system": "http://mihin.org/fhir/cks",
            "value": "cc756e6c19ff42d288a516a985b1073a"
          }
        ],
        "active": false,
        "name": [
          {
            "family": [
              "N Adult DM"
            ],
            "given": [
              "2"
            ]
          }
        ],
        "telecom": [
          {
            "system": "phone",
            "value": "810-555-3890",
            "use": "home"
          },
          {
            "system": "phone",
            "value": "810-555-6756",
            "use": "work"
          },
          {
            "extension": [
              {
                "url": "http://hl7.org/fhir/StructureDefinition/us-core-direct",
                "valueBoolean": true
              }
            ],
            "system": "email",
            "value": "2.N.Adult.DM@direct.mihintest.org",
            "use": "home"
          }
        ],
        "gender": "male",
        "birthDate": "1969-09-04",
        "address": [
          {
            "line": [
              "202 Burlington Rd."
            ],
            "city": "Bedford",
            "state": "MA",
            "postalCode": "01730"
          }
        ]
      },
      "request": {
        "method": "PUT",
        "url": "http://localhost:8080/fhir/baseDstu2/Patient/Patient-12218"
      }
    },
    {
      "fullUrl": "http://localhost:8080/fhir/baseDstu2/Practitioner/Practitioner-12208",
      "resource": {
        "resourceType": "Practitioner",
        "id": "Practitioner-12208",
        "extension": [
          {
            "url": "http://hl7.org/fhir/StructureDefinition/us-core-race",
            "valueCodeableConcept": {
              "coding": [
                {
                  "system": "http://hl7.org/fhir/v3/Race",
                  "code": "2056-0",
                  "display": "Black"
                }
              ]
            }
          },
          {
            "url": "http://hl7.org/fhir/StructureDefinition/us-core-ethnicity",
            "valueCodeableConcept": {
              "coding": [
                {
                  "system": "http://hl7.org/fhir/v3/Ethnicity",
                  "code": "2186-5",
                  "display": "Not Hispanic or Latino"
                }
              ]
            }
          },
          {
            "url": "http://gov.onc.fhir.extension.taxonomy",
            "valueCodeableConcept": {
              "coding": [
                {
                  "system": "http://org.nucc.taxonomy",
                  "code": "208D00000X",
                  "display": "General Practice"
                }
              ]
            }
          },
          {
            "url": "http://org.mihin.fhir.extension.electronic-service",
            "valueReference": {
              "reference": "ElectronicService/ElectronicService-2415",
              "display": "Jay.M.Sawyer@direct.mihintest.org"
            }
          }
        ],
        "identifier": [
          {
            "use": "official",
            "type": {
              "coding": [
                {
                  "system": "http://hl7.org/fhir/identifier-type",
                  "code": "SB",
                  "display": "Social Beneficiary Identifier"
                }
              ],
              "text": "US Social Security Number"
            },
            "system": "http://hl7.org/fhir/sid/us-ssn",
            "value": "000012208"
          },
          {
            "use": "official",
            "type": {
              "coding": [
                {
                  "system": "http://hl7.org/fhir/v2/0203",
                  "code": "PRN",
                  "display": "Provider number"
                }
              ],
              "text": "US National Provider Identifier"
            },
            "system": "http://hl7.org/fhir/sid/us-npi",
            "value": "9999912208"
          },
          {
            "use": "official",
            "type": {
              "coding": [
                {
                  "system": "http://hl7.org/fhir/identifier-type",
                  "code": "SB",
                  "display": "Social Beneficiary Identifier"
                }
              ],
              "text": "Michigan Common Key Service Identifier"
            },
            "system": "http://mihin.org/fhir/cks",
            "value": "c6cc1bbaf5ea41c5a0d267e3a655def1"
          }
        ],
        "name": [
          {
            "family": [
              "Sawyer"
            ],
            "given": [
              "Jay",
              "McCann"
            ],
            "suffix": [
              "MD"
            ]
          }
        ],
        "telecom": [
          {
            "system": "phone",
            "value": "989-555-8443",
            "use": "home"
          },
          {
            "system": "phone",
            "value": "989-555-5764",
            "use": "work"
          }
        ],
        "address": [
          {
            "line": [
              "77 S Pine Place"
            ],
            "city": "Beaverton",
            "state": "MI",
            "postalCode": "48612"
          }
        ],
        "gender": "male",
        "birthDate": "1970-08-07",
        "qualification": [
          {
            "identifier": [
              {
                "use": "official",
                "type": {
                  "coding": [
                    {
                      "system": "http://hl7.org/fhir/v2/0203",
                      "code": "MD",
                      "display": "Medical License number"
                    }
                  ],
                  "text": "Michigan Medical License"
                },
                "system": "http://michigan.gov/fhir/medical-license",
                "value": "LARA-12208",
                "assigner": {
                  "display": "State of Michigan"
                }
              }
            ],
            "code": {
              "coding": [
                {
                  "system": "http://michigan.gov/lara/license-type",
                  "code": "4305",
                  "display": "Medical Doctor"
                }
              ]
            },
            "issuer": {
              "reference": "Organization/Organization-2000",
              "display": "Michigan Department of Licensing and Regulatory Affairs"
            }
          }
        ]
      },
      "request": {
        "method": "PUT",
        "url": "http://localhost:8080/fhir/baseDstu2/Practitioner/Practitioner-12208"
      }
    },
    {
      "fullUrl": "http://localhost:8080/fhir/baseDstu2/Organization/Organization-2002",
      "resource": {
        "resourceType": "Organization",
        "id": "Organization-2002",
        "extension": [
          {
            "url": "http://org.mihin.fhir.extension.organization-license",
            "valueIdentifier": {
              "use": "official",
              "type": {
                "coding": [
                  {
                    "system": "http://gov.michigan.fhir.organization-license-type",
                    "code": "PRACTICE"
                  }
                ],
                "text": "Michigan Medical Practice License"
              },
              "system": "http://gov.michigan.fhir.organization-license",
              "value": "LARA-ORG-2002",
              "assigner": {
                "display": "State of Michigan"
              }
            }
          },
          {
            "url": "http://gov.onc.fhir.extension.taxonomy",
            "valueCodeableConcept": {
              "coding": [
                {
                  "system": "http://org.nucc.taxonomy",
                  "code": "261Q00000X",
                  "display": "Clinic/Center"
                }
              ]
            }
          },
          {
            "url": "http://org.mihin.fhir.extension.electronic-service",
            "valueReference": {
              "reference": "ElectronicService/ElectronicService-50",
              "display": "Sun.Hill.Physicians@direct.test.mihin.org"
            }
          }
        ],
        "identifier": [
          {
            "use": "official",
            "system": "http://www.hl7.org/oid/",
            "value": "1.2.3.4.5.9.99.999.9999.2002"
          },
          {
            "use": "official",
            "type": {
              "coding": [
                {
                  "system": "http://hl7.org/fhir/v2/0203",
                  "code": "PRN",
                  "display": "Provider number"
                }
              ],
              "text": "US National Provider Identifier"
            },
            "system": "http://hl7.org/fhir/sid/us-npi",
            "value": "9999992002"
          }
        ],
        "active": true,
        "type": {
          "text": "Clinic/Center"
        },
        "name": "Sun Hill Physicians",
        "telecom": [
          {
            "system": "phone",
            "value": "231-555-9381",
            "use": "work"
          }
        ],
        "address": [
          {
            "line": [
              "261 Ninth Street"
            ],
            "city": "Bitely",
            "state": "MI",
            "postalCode": "49309"
          }
        ]
      },
      "request": {
        "method": "PUT",
        "url": "http://localhost:8080/fhir/baseDstu2/Organization/Organization-2002"
      }
    },
    {
      "fullUrl": "http://localhost:8080/fhir/baseDstu2/Coverage/Coverage-68",
      "resource": {
        "resourceType": "Coverage",
        "id": "Coverage-68",
        "extension": [
          {
            "url": "http://mihin.org/fhir/templateId",
            "valueString": "2.16.840.1.113883.10.20.24.3.55"
          }
        ],
        "status": "active",
        "issuerIdentifier": {
          "system": "http://www.example.org/",
          "value": "example-issuer"
        },
        "period": {
          "start": "2008-01-01T05:00:00-05:00"
        },
        "type": {
          "system": "2.16.840.1.113883.3.221.5",
          "code": "349"
        },
        "planholderReference": {
          "reference": "Patient/Patient-12218",
          "display": "2  N Adult DM"
        },
        "beneficiaryReference": {
          "reference": "Patient/Patient-12218",
          "display": "2  N Adult DM"
        },
        "relationship": {
          "system": "http://hl7.org/fhir/policyholder-relationship",
          "code": "self"
        },
        "identifier": [
          {
            "system": "http://hl7.org/fhir/identifier",
            "value": "1.3.6.1.4.1.115:579f4eb5aeac500a550c5c4b"
          }
        ]
      },
      "request": {
        "method": "PUT",
        "url": "http://localhost:8080/fhir/baseDstu2/Coverage/Coverage-68"
      }
    },
    {
      "fullUrl": "http://localhost:8080/fhir/baseDstu2/Encounter/Encounter-69",
      "resource": {
        "resourceType": "Encounter",
        "id": "Encounter-69",
        "extension": [
          {
            "url": "http://mihin.org/fhir/templateId",
            "valueString": "2.16.840.1.113883.10.20.22.4.49"
          },
          {
            "url": "http://mihin.org/fhir/templateId",
            "valueString": "2.16.840.1.113883.10.20.24.3.23"
          }
        ],
        "status": "finished",
        "class": {
          "system": "http://hl7.org/fhir/ValueSet/v3-ActEncounterCode",
          "code": "outpatient"
        },
        "type": [
          {
            "coding": [
              {
                "system": "urn:oid:2.16.840.1.113883.6.12",
                "code": "99328"
              }
            ],
            "text": "Encounter, Performed: Care Services In Long Term Residential Facility"
          }
        ],
        "patient": {
          "reference": "Patient/Patient-12218",
          "display": "2  N Adult DM"
        },
        "participant": [
          {
            "period": {
              "start": "2015-01-04T08:00:00-05:00",
              "end": "2015-01-04T08:15:00-05:00"
            },
            "individual": {
              "reference": "Practitioner/Practitioner-12208",
              "display": "Jay McCann Sawyer MD"
            }
          }
        ],
        "serviceProvider": {
          "reference": "Organization/Organization-2002",
          "display": "Sun Hill Physicians"
        }
      },
      "request": {
        "method": "PUT",
        "url": "http://localhost:8080/fhir/baseDstu2/Encounter/Encounter-69"
      }
    },
    {
      "fullUrl": "http://localhost:8080/fhir/baseDstu2/Encounter/Encounter-70",
      "resource": {
        "resourceType": "Encounter",
        "id": "Encounter-70",
        "extension": [
          {
            "url": "http://mihin.org/fhir/templateId",
            "valueString": "2.16.840.1.113883.10.20.22.4.49"
          },
          {
            "url": "http://mihin.org/fhir/templateId",
            "valueString": "2.16.840.1.113883.10.20.24.3.23"
          }
        ],
        "status": "finished",
        "class": {
          "system": "http://hl7.org/fhir/ValueSet/v3-ActEncounterCode",
          "code": "outpatient"
        },
        "type": [
          {
            "coding": [
              {
                "system": "urn:oid:2.16.840.1.113883.6.12",
                "code": "99396"
              }
            ],
            "text": "Encounter, Performed: Preventive Care Services   Established Office Visit, 18 And Up"
          }
        ],
        "patient": {
          "reference": "Patient/Patient-12218",
          "display": "2  N Adult DM"
        },
        "participant": [
          {
            "period": {
              "start": "2015-12-02T08:00:00-05:00",
              "end": "2015-12-02T08:30:00-05:00"
            },
            "individual": {
              "reference": "Practitioner/Practitioner-12208",
              "display": "Jay McCann Sawyer MD"
            }
          }
        ],
        "serviceProvider": {
          "reference": "Organization/Organization-2002",
          "display": "Sun Hill Physicians"
        }
      },
      "request": {
        "method": "PUT",
        "url": "http://localhost:8080/fhir/baseDstu2/Encounter/Encounter-70"
      }
    },
    {
      "fullUrl": "http://localhost:8080/fhir/baseDstu2/Encounter/Encounter-71",
      "resource": {
        "resourceType": "Encounter",
        "id": "Encounter-71",
        "extension": [
          {
            "url": "http://mihin.org/fhir/templateId",
            "valueString": "2.16.840.1.113883.10.20.22.4.49"
          },
          {
            "url": "http://mihin.org/fhir/templateId",
            "valueString": "2.16.840.1.113883.10.20.24.3.23"
          }
        ],
        "status": "finished",
        "class": {
          "system": "http://hl7.org/fhir/ValueSet/v3-ActEncounterCode",
          "code": "outpatient"
        },
        "type": [
          {
            "coding": [
              {
                "system": "urn:oid:2.16.840.1.113883.6.12",
                "code": "99420"
              }
            ],
            "text": "Encounter, Performed: Preventive Care Services   Other"
          }
        ],
        "patient": {
          "reference": "Patient/Patient-12218",
          "display": "2  N Adult DM"
        },
        "participant": [
          {
            "period": {
              "start": "2015-02-24T08:00:00-05:00",
              "end": "2015-02-24T08:15:00-05:00"
            },
            "individual": {
              "reference": "Practitioner/Practitioner-12208",
              "display": "Jay McCann Sawyer MD"
            }
          }
        ],
        "serviceProvider": {
          "reference": "Organization/Organization-2002",
          "display": "Sun Hill Physicians"
        }
      },
      "request": {
        "method": "PUT",
        "url": "http://localhost:8080/fhir/baseDstu2/Encounter/Encounter-71"
      }
    },
    {
      "fullUrl": "http://localhost:8080/fhir/baseDstu2/Encounter/Encounter-72",
      "resource": {
        "resourceType": "Encounter",
        "id": "Encounter-72",
        "extension": [
          {
            "url": "http://mihin.org/fhir/templateId",
            "valueString": "2.16.840.1.113883.10.20.22.4.49"
          },
          {
            "url": "http://mihin.org/fhir/templateId",
            "valueString": "2.16.840.1.113883.10.20.24.3.23"
          }
        ],
        "status": "finished",
        "class": {
          "system": "http://hl7.org/fhir/ValueSet/v3-ActEncounterCode",
          "code": "outpatient"
        },
        "type": [
          {
            "coding": [
              {
                "system": "urn:oid:2.16.840.1.113883.6.12",
                "code": "99386"
              }
            ],
            "text": "Encounter, Performed: Preventive Care Services Initial Office Visit, 18 And Up"
          }
        ],
        "patient": {
          "reference": "Patient/Patient-12218",
          "display": "2  N Adult DM"
        },
        "participant": [
          {
            "period": {
              "start": "2015-07-02T08:00:00-04:00",
              "end": "2015-07-02T08:30:00-04:00"
            },
            "individual": {
              "reference": "Practitioner/Practitioner-12208",
              "display": "Jay McCann Sawyer MD"
            }
          }
        ],
        "serviceProvider": {
          "reference": "Organization/Organization-2002",
          "display": "Sun Hill Physicians"
        }
      },
      "request": {
        "method": "PUT",
        "url": "http://localhost:8080/fhir/baseDstu2/Encounter/Encounter-72"
      }
    },
    {
      "fullUrl": "http://localhost:8080/fhir/baseDstu2/Condition/Condition-73",
      "resource": {
        "resourceType": "Condition",
        "id": "Condition-73",
        "extension": [
          {
            "url": "http://mihin.org/fhir/templateId",
            "valueString": "2.16.840.1.113883.10.20.22.4.3"
          },
          {
            "url": "http://mihin.org/fhir/templateId",
            "valueString": "2.16.840.1.113883.10.20.24.3.137"
          }
        ],
        "clinicalStatus": "active",
        "verificationStatus": "confirmed",
        "category": {
          "coding": [
            {
              "system": "http://hl7.org/fhir/condition-category",
              "code": "diagnosis",
              "display": "Diagnosis"
            }
          ],
          "text": "This is a judgment made by a healthcare provider that the patient has a particular disease or condition"
        },
        "code": {
          "coding": [
            {
              "system": "urn:oid:2.16.840.1.113883.6.96",
              "code": "46635009"
            }
          ],
          "text": "Diagnosis: Diabetes"
        },
        "subject": {
          "reference": "Patient/Patient-12218",
          "display": "2  N Adult DM"
        },
        "dateRecorded": "1979-04-01",
        "asserter": {
          "reference": "Practitioner/Practitioner-12208",
          "display": "Jay McCann Sawyer MD"
        }
      },
      "request": {
        "method": "PUT",
        "url": "http://localhost:8080/fhir/baseDstu2/Condition/Condition-73"
      }
    },
    {
      "fullUrl": "http://localhost:8080/fhir/baseDstu2/Condition/Condition-74",
      "resource": {
        "resourceType": "Condition",
        "id": "Condition-74",
        "extension": [
          {
            "url": "http://mihin.org/fhir/templateId",
            "valueString": "2.16.840.1.113883.10.20.22.4.3"
          },
          {
            "url": "http://mihin.org/fhir/templateId",
            "valueString": "2.16.840.1.113883.10.20.24.3.137"
          }
        ],
        "clinicalStatus": "active",
        "verificationStatus": "confirmed",
        "category": {
          "coding": [
            {
              "system": "http://hl7.org/fhir/condition-category",
              "code": "diagnosis",
              "display": "Diagnosis"
            }
          ],
          "text": "This is a judgment made by a healthcare provider that the patient has a particular disease or condition"
        },
        "code": {
          "coding": [
            {
              "system": "urn:oid:2.16.840.1.113883.6.103",
              "code": "404.92"
            }
          ],
          "text": "Diagnosis: Hypertensive Chronic Kidney Disease"
        },
        "subject": {
          "reference": "Patient/Patient-12218",
          "display": "2  N Adult DM"
        },
        "dateRecorded": "2006-05-30",
        "asserter": {
          "reference": "Practitioner/Practitioner-12208",
          "display": "Jay McCann Sawyer MD"
        }
      },
      "request": {
        "method": "PUT",
        "url": "http://localhost:8080/fhir/baseDstu2/Condition/Condition-74"
      }
    },
    {
      "fullUrl": "http://localhost:8080/fhir/baseDstu2/MedicationStatement/MedicationStatement-75",
      "resource": {
        "resourceType": "MedicationStatement",
        "id": "MedicationStatement-75",
        "extension": [
          {
            "url": "http://mihin.org/fhir/templateId",
            "valueString": "2.16.840.1.113883.10.20.22.4.16"
          },
          {
            "url": "http://mihin.org/fhir/templateId",
            "valueString": "2.16.840.1.113883.10.20.24.3.41"
          }
        ],
        "identifier": [
          {
            "system": "http://hl7.org/fhir/identifier",
            "value": "1.3.6.1.4.1.115:579f4eb5aeac500a550c5c4a"
          }
        ],
        "status": "active",
        "medicationCodeableConcept": {
          "coding": [
            {
              "system": "urn:oid:2.16.840.1.113883.6.88",
              "code": "857169"
            }
          ],
          "text": "Medication, Active: Ace Inhibitor Or Arb"
        },
        "patient": {
          "reference": "Patient/Patient-12218",
          "display": "2  N Adult DM"
        },
        "dateAsserted": "2006-05-30T08:00:00-04:00"
      },
      "request": {
        "method": "PUT",
        "url": "http://localhost:8080/fhir/baseDstu2/MedicationStatement/MedicationStatement-75"
      }
    },
    {
      "fullUrl": "http://localhost:8080/fhir/baseDstu2/Condition/Condition-76",
      "resource": {
        "resourceType": "Condition",
        "id": "Condition-76",
        "extension": [
          {
            "url": "http://mihin.org/fhir/templateId",
            "valueString": "2.16.840.1.113883.10.20.22.4.3"
          },
          {
            "url": "http://mihin.org/fhir/templateId",
            "valueString": "2.16.840.1.113883.10.20.24.3.137"
          }
        ],
        "clinicalStatus": "active",
        "verificationStatus": "confirmed",
        "category": {
          "coding": [
            {
              "system": "http://hl7.org/fhir/condition-category",
              "code": "diagnosis",
              "display": "Diagnosis"
            }
          ],
          "text": "This is a judgment made by a healthcare provider that the patient has a particular disease or condition"
        },
        "code": {
          "coding": [
            {
              "system": "urn:oid:2.16.840.1.113883.6.96",
              "code": "298049006"
            }
          ],
          "text": "Diagnosis: Unilateral Amputation Below Or Above Knee, Unspecified Laterality"
        },
        "subject": {
          "reference": "Patient/Patient-12218",
          "display": "2  N Adult DM"
        },
        "dateRecorded": "2003-05-13",
        "asserter": {
          "reference": "Practitioner/Practitioner-12208",
          "display": "Jay McCann Sawyer MD"
        }
      },
      "request": {
        "method": "PUT",
        "url": "http://localhost:8080/fhir/baseDstu2/Condition/Condition-76"
      }
    },
    {
      "fullUrl": "http://localhost:8080/fhir/baseDstu2/Condition/Condition-77",
      "resource": {
        "resourceType": "Condition",
        "id": "Condition-77",
        "extension": [
          {
            "url": "http://mihin.org/fhir/templateId",
            "valueString": "2.16.840.1.113883.10.20.22.4.3"
          },
          {
            "url": "http://mihin.org/fhir/templateId",
            "valueString": "2.16.840.1.113883.10.20.24.3.137"
          }
        ],
        "clinicalStatus": "active",
        "verificationStatus": "confirmed",
        "category": {
          "coding": [
            {
              "system": "http://hl7.org/fhir/condition-category",
              "code": "diagnosis",
              "display": "Diagnosis"
            }
          ],
          "text": "This is a judgment made by a healthcare provider that the patient has a particular disease or condition"
        },
        "code": {
          "coding": [
            {
              "system": "urn:oid:2.16.840.1.113883.6.96",
              "code": "298049006"
            }
          ],
          "text": "Diagnosis: Unilateral Amputation Below Or Above Knee, Unspecified Laterality"
        },
        "subject": {
          "reference": "Patient/Patient-12218",
          "display": "2  N Adult DM"
        },
        "dateRecorded": "2006-07-09",
        "asserter": {
          "reference": "Practitioner/Practitioner-12208",
          "display": "Jay McCann Sawyer MD"
        }
      },
      "request": {
        "method": "PUT",
        "url": "http://localhost:8080/fhir/baseDstu2/Condition/Condition-77"
      }
    },
    {
      "fullUrl": "http://localhost:8080/fhir/baseDstu2/Condition/Condition-78",
      "resource": {
        "resourceType": "Condition",
        "id": "Condition-78",
        "extension": [
          {
            "url": "http://mihin.org/fhir/templateId",
            "valueString": "2.16.840.1.113883.10.20.22.4.3"
          },
          {
            "url": "http://mihin.org/fhir/templateId",
            "valueString": "2.16.840.1.113883.10.20.24.3.137"
          }
        ],
        "clinicalStatus": "active",
        "verificationStatus": "confirmed",
        "category": {
          "coding": [
            {
              "system": "http://hl7.org/fhir/condition-category",
              "code": "diagnosis",
              "display": "Diagnosis"
            }
          ],
          "text": "This is a judgment made by a healthcare provider that the patient has a particular disease or condition"
        },
        "code": {
          "coding": [
            {
              "system": "urn:oid:2.16.840.1.113883.6.96",
              "code": "19351000"
            }
          ],
          "text": "Diagnosis: Glomerulonephritis And Nephrotic Syndrome"
        },
        "subject": {
          "reference": "Patient/Patient-12218",
          "display": "2  N Adult DM"
        },
        "dateRecorded": "2004-12-28",
        "asserter": {
          "reference": "Practitioner/Practitioner-12208",
          "display": "Jay McCann Sawyer MD"
        }
      },
      "request": {
        "method": "PUT",
        "url": "http://localhost:8080/fhir/baseDstu2/Condition/Condition-78"
      }
    },
    {
      "fullUrl": "http://localhost:8080/fhir/baseDstu2/Condition/Condition-79",
      "resource": {
        "resourceType": "Condition",
        "id": "Condition-79",
        "extension": [
          {
            "url": "http://mihin.org/fhir/templateId",
            "valueString": "2.16.840.1.113883.10.20.22.4.3"
          },
          {
            "url": "http://mihin.org/fhir/templateId",
            "valueString": "2.16.840.1.113883.10.20.24.3.137"
          }
        ],
        "clinicalStatus": "active",
        "verificationStatus": "confirmed",
        "category": {
          "coding": [
            {
              "system": "http://hl7.org/fhir/condition-category",
              "code": "diagnosis",
              "display": "Diagnosis"
            }
          ],
          "text": "This is a judgment made by a healthcare provider that the patient has a particular disease or condition"
        },
        "code": {
          "coding": [
            {
              "system": "urn:oid:2.16.840.1.113883.6.96",
              "code": "65443008"
            }
          ],
          "text": "Diagnosis: Hypertensive Chronic Kidney Disease"
        },
        "subject": {
          "reference": "Patient/Patient-12218",
          "display": "2  N Adult DM"
        },
        "dateRecorded": "2006-05-30",
        "asserter": {
          "reference": "Practitioner/Practitioner-12208",
          "display": "Jay McCann Sawyer MD"
        }
      },
      "request": {
        "method": "PUT",
        "url": "http://localhost:8080/fhir/baseDstu2/Condition/Condition-79"
      }
    },
    {
      "fullUrl": "http://localhost:8080/fhir/baseDstu2/Condition/Condition-80",
      "resource": {
        "resourceType": "Condition",
        "id": "Condition-80",
        "extension": [
          {
            "url": "http://mihin.org/fhir/templateId",
            "valueString": "2.16.840.1.113883.10.20.22.4.3"
          },
          {
            "url": "http://mihin.org/fhir/templateId",
            "valueString": "2.16.840.1.113883.10.20.24.3.137"
          }
        ],
        "clinicalStatus": "active",
        "verificationStatus": "confirmed",
        "category": {
          "coding": [
            {
              "system": "http://hl7.org/fhir/condition-category",
              "code": "diagnosis",
              "display": "Diagnosis"
            }
          ],
          "text": "This is a judgment made by a healthcare provider that the patient has a particular disease or condition"
        },
        "code": {
          "coding": [
            {
              "system": "urn:oid:2.16.840.1.113883.6.96",
              "code": "29738008"
            }
          ],
          "text": "Diagnosis: Proteinuria"
        },
        "subject": {
          "reference": "Patient/Patient-12218",
          "display": "2  N Adult DM"
        },
        "dateRecorded": "2006-05-30",
        "asserter": {
          "reference": "Practitioner/Practitioner-12208",
          "display": "Jay McCann Sawyer MD"
        }
      },
      "request": {
        "method": "PUT",
        "url": "http://localhost:8080/fhir/baseDstu2/Condition/Condition-80"
      }
    },
    {
      "fullUrl": "http://localhost:8080/fhir/baseDstu2/Condition/Condition-81",
      "resource": {
        "resourceType": "Condition",
        "id": "Condition-81",
        "extension": [
          {
            "url": "http://mihin.org/fhir/templateId",
            "valueString": "2.16.840.1.113883.10.20.22.4.3"
          },
          {
            "url": "http://mihin.org/fhir/templateId",
            "valueString": "2.16.840.1.113883.10.20.24.3.137"
          }
        ],
        "clinicalStatus": "active",
        "verificationStatus": "confirmed",
        "category": {
          "coding": [
            {
              "system": "http://hl7.org/fhir/condition-category",
              "code": "diagnosis",
              "display": "Diagnosis"
            }
          ],
          "text": "This is a judgment made by a healthcare provider that the patient has a particular disease or condition"
        },
        "code": {
          "coding": [
            {
              "system": "urn:oid:2.16.840.1.113883.6.90",
              "code": "I13.0"
            }
          ],
          "text": "Diagnosis: Hypertensive Chronic Kidney Disease"
        },
        "subject": {
          "reference": "Patient/Patient-12218",
          "display": "2  N Adult DM"
        },
        "dateRecorded": "2006-05-30",
        "asserter": {
          "reference": "Practitioner/Practitioner-12208",
          "display": "Jay McCann Sawyer MD"
        }
      },
      "request": {
        "method": "PUT",
        "url": "http://localhost:8080/fhir/baseDstu2/Condition/Condition-81"
      }
    },
    {
      "fullUrl": "http://localhost:8080/fhir/baseDstu2/Encounter/Encounter-82",
      "resource": {
        "resourceType": "Encounter",
        "id": "Encounter-82",
        "extension": [
          {
            "url": "http://mihin.org/fhir/templateId",
            "valueString": "2.16.840.1.113883.10.20.22.4.49"
          },
          {
            "url": "http://mihin.org/fhir/templateId",
            "valueString": "2.16.840.1.113883.10.20.24.3.23"
          }
        ],
        "status": "finished",
        "class": {
          "system": "http://hl7.org/fhir/ValueSet/v3-ActEncounterCode",
          "code": "outpatient"
        },
        "type": [
          {
            "coding": [
              {
                "system": "urn:oid:2.16.840.1.113883.6.12",
                "code": "99316"
              }
            ],
            "text": "Encounter, Performed: Discharge Services   Nursing Facility"
          }
        ],
        "patient": {
          "reference": "Patient/Patient-12218",
          "display": "2  N Adult DM"
        },
        "participant": [
          {
            "period": {
              "start": "2015-03-15T08:00:00-04:00",
              "end": "2015-03-15T09:00:00-04:00"
            },
            "individual": {
              "reference": "Practitioner/Practitioner-12208",
              "display": "Jay McCann Sawyer MD"
            }
          }
        ],
        "serviceProvider": {
          "reference": "Organization/Organization-2002",
          "display": "Sun Hill Physicians"
        }
      },
      "request": {
        "method": "PUT",
        "url": "http://localhost:8080/fhir/baseDstu2/Encounter/Encounter-82"
      }
    }
  ]
}