{
  "resourceType": "Bundle",
  "id": "load-patient-12216",
  "meta": {
    "versionId": "1",
    "lastUpdated": "2016-09-13T20:58:18.845+00:00"
  },
  "type": "transaction",
  "entry": [
    {
      "fullUrl": "http://localhost:8080/fhir/baseDstu2/Patient/Patient-12216",
      "resource": {
        "resourceType": "Patient",
        "id": "Patient-12216",
        "extension": [
          {
            "url": "http://hl7.org/fhir/StructureDefinition/us-core-race",
            "valueCodeableConcept": {
              "coding": [
                {
                  "system": "http://hl7.org/fhir/v3/Race",
                  "code": "2106-3",
                  "display": "White"
                }
              ]
            }
          },
          {
            "url": "http://hl7.org/fhir/StructureDefinition/us-core-ethnicity",
            "valueCodeableConcept": {
              "coding": [
                {
                  "system": "http://hl7.org/fhir/v3/Ethnicity",
                  "code": "2186-5",
                  "display": "Not Hispanic or Latino"
                }
              ]
            }
          },
          {
            "url": "http://hl7.org/fhir/StructureDefinition/us-core-religion",
            "valueCodeableConcept": {
              "coding": [
                {
                  "system": "http://hl7.org/fhir/v3/ReligiousAffiliation",
                  "code": "1041",
                  "display": "Roman Catholic Church"
                }
              ]
            }
          }
        ],
        "identifier": [
          {
            "use": "official",
            "type": {
              "coding": [
                {
                  "system": "http://hl7.org/fhir/identifier-type",
                  "code": "SB",
                  "display": "Social Beneficiary Identifier"
                }
              ],
              "text": "Michigan Common Key Service Identifier"
            },
            "system": "http://mihin.org/fhir/cks",
            "value": "afe8e8debbf041809321e027ceffe985"
          }
        ],
        "active": false,
        "name": [
          {
            "family": [
              "N CA Male"
            ],
            "given": [
              "3 N"
            ]
          }
        ],
        "telecom": [
          {
            "system": "phone",
            "value": "517-555-5112",
            "use": "home"
          },
          {
            "system": "phone",
            "value": "517-555-0825",
            "use": "work"
          },
          {
            "extension": [
              {
                "url": "http://hl7.org/fhir/StructureDefinition/us-core-direct",
                "valueBoolean": true
              }
            ],
            "system": "email",
            "value": "3.N.N.CA.Male@direct.mihintest.org",
            "use": "home"
          }
        ],
        "gender": "male",
        "birthDate": "1978-05-28",
        "address": [
          {
            "line": [
              "202 Burlington Rd."
            ],
            "city": "Bedford",
            "state": "MA",
            "postalCode": "01730"
          }
        ]
      },
      "request": {
        "method": "PUT",
        "url": "http://localhost:8080/fhir/baseDstu2/Patient/Patient-12216"
      }
    },
    {
      "fullUrl": "http://localhost:8080/fhir/baseDstu2/Practitioner/Practitioner-12208",
      "resource": {
        "resourceType": "Practitioner",
        "id": "Practitioner-12208",
        "extension": [
          {
            "url": "http://hl7.org/fhir/StructureDefinition/us-core-race",
            "valueCodeableConcept": {
              "coding": [
                {
                  "system": "http://hl7.org/fhir/v3/Race",
                  "code": "2056-0",
                  "display": "Black"
                }
              ]
            }
          },
          {
            "url": "http://hl7.org/fhir/StructureDefinition/us-core-ethnicity",
            "valueCodeableConcept": {
              "coding": [
                {
                  "system": "http://hl7.org/fhir/v3/Ethnicity",
                  "code": "2186-5",
                  "display": "Not Hispanic or Latino"
                }
              ]
            }
          },
          {
            "url": "http://gov.onc.fhir.extension.taxonomy",
            "valueCodeableConcept": {
              "coding": [
                {
                  "system": "http://org.nucc.taxonomy",
                  "code": "208D00000X",
                  "display": "General Practice"
                }
              ]
            }
          },
          {
            "url": "http://org.mihin.fhir.extension.electronic-service",
            "valueReference": {
              "reference": "ElectronicService/ElectronicService-2415",
              "display": "Jay.M.Sawyer@direct.mihintest.org"
            }
          }
        ],
        "identifier": [
          {
            "use": "official",
            "type": {
              "coding": [
                {
                  "system": "http://hl7.org/fhir/identifier-type",
                  "code": "SB",
                  "display": "Social Beneficiary Identifier"
                }
              ],
              "text": "US Social Security Number"
            },
            "system": "http://hl7.org/fhir/sid/us-ssn",
            "value": "000012208"
          },
          {
            "use": "official",
            "type": {
              "coding": [
                {
                  "system": "http://hl7.org/fhir/v2/0203",
                  "code": "PRN",
                  "display": "Provider number"
                }
              ],
              "text": "US National Provider Identifier"
            },
            "system": "http://hl7.org/fhir/sid/us-npi",
            "value": "9999912208"
          },
          {
            "use": "official",
            "type": {
              "coding": [
                {
                  "system": "http://hl7.org/fhir/identifier-type",
                  "code": "SB",
                  "display": "Social Beneficiary Identifier"
                }
              ],
              "text": "Michigan Common Key Service Identifier"
            },
            "system": "http://mihin.org/fhir/cks",
            "value": "c6cc1bbaf5ea41c5a0d267e3a655def1"
          }
        ],
        "name": [
          {
            "family": [
              "Sawyer"
            ],
            "given": [
              "Jay",
              "McCann"
            ],
            "suffix": [
              "MD"
            ]
          }
        ],
        "telecom": [
          {
            "system": "phone",
            "value": "989-555-8443",
            "use": "home"
          },
          {
            "system": "phone",
            "value": "989-555-5764",
            "use": "work"
          }
        ],
        "address": [
          {
            "line": [
              "77 S Pine Place"
            ],
            "city": "Beaverton",
            "state": "MI",
            "postalCode": "48612"
          }
        ],
        "gender": "male",
        "birthDate": "1970-08-07",
        "qualification": [
          {
            "identifier": [
              {
                "use": "official",
                "type": {
                  "coding": [
                    {
                      "system": "http://hl7.org/fhir/v2/0203",
                      "code": "MD",
                      "display": "Medical License number"
                    }
                  ],
                  "text": "Michigan Medical License"
                },
                "system": "http://michigan.gov/fhir/medical-license",
                "value": "LARA-12208",
                "assigner": {
                  "display": "State of Michigan"
                }
              }
            ],
            "code": {
              "coding": [
                {
                  "system": "http://michigan.gov/lara/license-type",
                  "code": "4305",
                  "display": "Medical Doctor"
                }
              ]
            },
            "issuer": {
              "reference": "Organization/Organization-2000",
              "display": "Michigan Department of Licensing and Regulatory Affairs"
            }
          }
        ]
      },
      "request": {
        "method": "PUT",
        "url": "http://localhost:8080/fhir/baseDstu2/Practitioner/Practitioner-12208"
      }
    },
    {
      "fullUrl": "http://localhost:8080/fhir/baseDstu2/Organization/Organization-2002",
      "resource": {
        "resourceType": "Organization",
        "id": "Organization-2002",
        "extension": [
          {
            "url": "http://org.mihin.fhir.extension.organization-license",
            "valueIdentifier": {
              "use": "official",
              "type": {
                "coding": [
                  {
                    "system": "http://gov.michigan.fhir.organization-license-type",
                    "code": "PRACTICE"
                  }
                ],
                "text": "Michigan Medical Practice License"
              },
              "system": "http://gov.michigan.fhir.organization-license",
              "value": "LARA-ORG-2002",
              "assigner": {
                "display": "State of Michigan"
              }
            }
          },
          {
            "url": "http://gov.onc.fhir.extension.taxonomy",
            "valueCodeableConcept": {
              "coding": [
                {
                  "system": "http://org.nucc.taxonomy",
                  "code": "261Q00000X",
                  "display": "Clinic/Center"
                }
              ]
            }
          },
          {
            "url": "http://org.mihin.fhir.extension.electronic-service",
            "valueReference": {
              "reference": "ElectronicService/ElectronicService-50",
              "display": "Sun.Hill.Physicians@direct.test.mihin.org"
            }
          }
        ],
        "identifier": [
          {
            "use": "official",
            "system": "http://www.hl7.org/oid/",
            "value": "1.2.3.4.5.9.99.999.9999.2002"
          },
          {
            "use": "official",
            "type": {
              "coding": [
                {
                  "system": "http://hl7.org/fhir/v2/0203",
                  "code": "PRN",
                  "display": "Provider number"
                }
              ],
              "text": "US National Provider Identifier"
            },
            "system": "http://hl7.org/fhir/sid/us-npi",
            "value": "9999992002"
          }
        ],
        "active": true,
        "type": {
          "text": "Clinic/Center"
        },
        "name": "Sun Hill Physicians",
        "telecom": [
          {
            "system": "phone",
            "value": "231-555-9381",
            "use": "work"
          }
        ],
        "address": [
          {
            "line": [
              "261 Ninth Street"
            ],
            "city": "Bitely",
            "state": "MI",
            "postalCode": "49309"
          }
        ]
      },
      "request": {
        "method": "PUT",
        "url": "http://localhost:8080/fhir/baseDstu2/Organization/Organization-2002"
      }
    },
    {
      "fullUrl": "http://localhost:8080/fhir/baseDstu2/Encounter/Encounter-35",
      "resource": {
        "resourceType": "Encounter",
        "id": "Encounter-35",
        "extension": [
          {
            "url": "http://mihin.org/fhir/templateId",
            "valueString": "2.16.840.1.113883.10.20.22.4.49"
          },
          {
            "url": "http://mihin.org/fhir/templateId",
            "valueString": "2.16.840.1.113883.10.20.24.3.23"
          }
        ],
        "status": "finished",
        "class": {
          "system": "http://hl7.org/fhir/ValueSet/v3-ActEncounterCode",
          "code": "outpatient"
        },
        "type": [
          {
            "coding": [
              {
                "system": "http://snomed.info/sct",
                "code": "390906007"
              }
            ],
            "text": "Encounter, Performed: Encounter Influenza"
          }
        ],
        "patient": {
          "reference": "Patient/Patient-12216",
          "display": "3 N  N CA Male"
        },
        "participant": [
          {
            "period": {
              "start": "2014-10-12T08:00:00-04:00",
              "end": "2014-10-12T08:30:00-04:00"
            },
            "individual": {
              "reference": "Practitioner/Practitioner-12208",
              "display": "Jay McCann Sawyer MD"
            }
          }
        ],
        "serviceProvider": {
          "reference": "Organization/Organization-2002",
          "display": "Sun Hill Physicians"
        }
      },
      "request": {
        "method": "PUT",
        "url": "http://localhost:8080/fhir/baseDstu2/Encounter/Encounter-35"
      }
    },
    {
      "fullUrl": "http://localhost:8080/fhir/baseDstu2/Encounter/Encounter-36",
      "resource": {
        "resourceType": "Encounter",
        "id": "Encounter-36",
        "extension": [
          {
            "url": "http://mihin.org/fhir/templateId",
            "valueString": "2.16.840.1.113883.10.20.22.4.49"
          },
          {
            "url": "http://mihin.org/fhir/templateId",
            "valueString": "2.16.840.1.113883.10.20.24.3.23"
          }
        ],
        "status": "finished",
        "class": {
          "system": "http://hl7.org/fhir/ValueSet/v3-ActEncounterCode",
          "code": "outpatient"
        },
        "type": [
          {
            "coding": [
              {
                "system": "http://www.ama-assn.org/go/cpt",
                "code": "99203"
              }
            ],
            "text": "Encounter, Performed: Office Visit"
          }
        ],
        "patient": {
          "reference": "Patient/Patient-12216",
          "display": "3 N  N CA Male"
        },
        "participant": [
          {
            "period": {
              "start": "2015-11-13T08:00:00-05:00",
              "end": "2015-11-13T09:00:00-05:00"
            },
            "individual": {
              "reference": "Practitioner/Practitioner-12208",
              "display": "Jay McCann Sawyer MD"
            }
          }
        ],
        "serviceProvider": {
          "reference": "Organization/Organization-2002",
          "display": "Sun Hill Physicians"
        }
      },
      "request": {
        "method": "PUT",
        "url": "http://localhost:8080/fhir/baseDstu2/Encounter/Encounter-36"
      }
    },
    {
      "fullUrl": "http://localhost:8080/fhir/baseDstu2/Encounter/Encounter-37",
      "resource": {
        "resourceType": "Encounter",
        "id": "Encounter-37",
        "extension": [
          {
            "url": "http://mihin.org/fhir/templateId",
            "valueString": "2.16.840.1.113883.10.20.22.4.49"
          },
          {
            "url": "http://mihin.org/fhir/templateId",
            "valueString": "2.16.840.1.113883.10.20.24.3.23"
          }
        ],
        "status": "finished",
        "class": {
          "system": "http://hl7.org/fhir/ValueSet/v3-ActEncounterCode",
          "code": "outpatient"
        },
        "type": [
          {
            "coding": [
              {
                "system": "http://www.ama-assn.org/go/cpt",
                "code": "99213"
              }
            ],
            "text": "Encounter, Performed: Office Visit"
          }
        ],
        "patient": {
          "reference": "Patient/Patient-12216",
          "display": "3 N  N CA Male"
        },
        "participant": [
          {
            "period": {
              "start": "2015-11-23T08:00:00-05:00",
              "end": "2015-11-23T09:00:00-05:00"
            },
            "individual": {
              "reference": "Practitioner/Practitioner-12208",
              "display": "Jay McCann Sawyer MD"
            }
          }
        ],
        "serviceProvider": {
          "reference": "Organization/Organization-2002",
          "display": "Sun Hill Physicians"
        }
      },
      "request": {
        "method": "PUT",
        "url": "http://localhost:8080/fhir/baseDstu2/Encounter/Encounter-37"
      }
    },
    {
      "fullUrl": "http://localhost:8080/fhir/baseDstu2/Coverage/Coverage-38",
      "resource": {
        "resourceType": "Coverage",
        "id": "Coverage-38",
        "extension": [
          {
            "url": "http://mihin.org/fhir/templateId",
            "valueString": "2.16.840.1.113883.10.20.24.3.55"
          }
        ],
        "status": "active",
        "issuerIdentifier": {
          "system": "http://www.example.org/",
          "value": "example-issuer"
        },
        "period": {
          "start": "2008-01-01T05:00:00-05:00"
        },
        "type": {
          "system": "2.16.840.1.113883.3.221.5",
          "code": "349"
        },
        "planholderReference": {
          "reference": "Patient/Patient-12216",
          "display": "3 N  N CA Male"
        },
        "beneficiaryReference": {
          "reference": "Patient/Patient-12216",
          "display": "3 N  N CA Male"
        },
        "relationship": {
          "system": "http://hl7.org/fhir/policyholder-relationship",
          "code": "self"
        },
        "identifier": [
          {
            "system": "http://hl7.org/fhir/identifier",
            "value": "1.3.6.1.4.1.115:579f4eb5aeac500a550c5cc2"
          }
        ]
      },
      "request": {
        "method": "PUT",
        "url": "http://localhost:8080/fhir/baseDstu2/Coverage/Coverage-38"
      }
    },
    {
      "fullUrl": "http://localhost:8080/fhir/baseDstu2/Procedure/Procedure-39",
      "resource": {
        "resourceType": "Procedure",
        "id": "Procedure-39",
        "extension": [
          {
            "url": "http://mihin.org/fhir/templateId",
            "valueString": "2.16.840.1.113883.10.20.24.3.64"
          },
          {
            "url": "http://mihin.org/fhir/templateId",
            "valueString": "2.16.840.1.113883.10.20.22.4.14"
          }
        ],
        "identifier": [
          {
            "system": "http://hl7.org/fhir/identifier",
            "value": "1.3.6.1.4.1.115:579f4eb5aeac500a550c5cbc"
          }
        ],
        "subject": {
          "reference": "Patient/Patient-12216",
          "display": "3 N  N CA Male"
        },
        "status": "completed",
        "category": {
          "coding": [
            {
              "system": "http://snomed.info/sct",
              "code": "387713003",
              "display": "Surgical Procedure"
            }
          ]
        },
        "code": {
          "coding": [
            {
              "system": "http://snomed.info/sct",
              "code": "116783008"
            }
          ],
          "text": "Procedure, Performed: Pathology Evaluation"
        },
        "performer": [
          {
            "actor": {
              "reference": "Practitioner/Practitioner-12208",
              "display": "Jay McCann Sawyer MD"
            },
            "role": {
              "coding": [
                {
                  "system": "http://hl7.org/fhir/ValueSet/performer-role",
                  "code": "112247003",
                  "display": "Medical doctor (occupation)"
                }
              ]
            }
          }
        ],
        "performedPeriod": {
          "start": "2015-11-13T08:15:00-05:00",
          "end": "2015-11-13T08:15:00-05:00"
        }
      },
      "request": {
        "method": "PUT",
        "url": "http://localhost:8080/fhir/baseDstu2/Procedure/Procedure-39"
      }
    },
    {
      "fullUrl": "http://localhost:8080/fhir/baseDstu2/Condition/Condition-40",
      "resource": {
        "resourceType": "Condition",
        "id": "Condition-40",
        "extension": [
          {
            "url": "http://mihin.org/fhir/templateId",
            "valueString": "2.16.840.1.113883.10.20.22.4.3"
          },
          {
            "url": "http://mihin.org/fhir/templateId",
            "valueString": "2.16.840.1.113883.10.20.24.3.137"
          }
        ],
        "clinicalStatus": "active",
        "verificationStatus": "confirmed",
        "category": {
          "coding": [
            {
              "system": "http://hl7.org/fhir/condition-category",
              "code": "diagnosis",
              "display": "Diagnosis"
            }
          ],
          "text": "This is a judgment made by a healthcare provider that the patient has a particular disease or condition"
        },
        "code": {
          "coding": [
            {
              "system": "http://snomed.info/sct",
              "code": "285312008"
            }
          ],
          "text": "Diagnosis: Colon Cancer"
        },
        "subject": {
          "reference": "Patient/Patient-12216",
          "display": "3 N  N CA Male"
        },
        "dateRecorded": "2015-11-13",
        "asserter": {
          "reference": "Practitioner/Practitioner-12208",
          "display": "Jay McCann Sawyer MD"
        }
      },
      "request": {
        "method": "PUT",
        "url": "http://localhost:8080/fhir/baseDstu2/Condition/Condition-40"
      }
    },
    {
      "fullUrl": "http://localhost:8080/fhir/baseDstu2/Condition/Condition-41",
      "resource": {
        "resourceType": "Condition",
        "id": "Condition-41",
        "extension": [
          {
            "url": "http://mihin.org/fhir/templateId",
            "valueString": "2.16.840.1.113883.10.20.22.4.3"
          },
          {
            "url": "http://mihin.org/fhir/templateId",
            "valueString": "2.16.840.1.113883.10.20.24.3.137"
          }
        ],
        "clinicalStatus": "active",
        "verificationStatus": "confirmed",
        "category": {
          "coding": [
            {
              "system": "http://hl7.org/fhir/condition-category",
              "code": "diagnosis",
              "display": "Diagnosis"
            }
          ],
          "text": "This is a judgment made by a healthcare provider that the patient has a particular disease or condition"
        },
        "code": {
          "coding": [
            {
              "system": "http://snomed.info/sct",
              "code": "285312008"
            }
          ],
          "text": "Diagnosis: Colon Cancer"
        },
        "subject": {
          "reference": "Patient/Patient-12216",
          "display": "3 N  N CA Male"
        },
        "dateRecorded": "2015-11-13",
        "asserter": {
          "reference": "Practitioner/Practitioner-12208",
          "display": "Jay McCann Sawyer MD"
        }
      },
      "request": {
        "method": "PUT",
        "url": "http://localhost:8080/fhir/baseDstu2/Condition/Condition-41"
      }
    },
    {
      "fullUrl": "http://localhost:8080/fhir/baseDstu2/MedicationOrder/MedicationOrder-42",
      "resource": {
        "resourceType": "MedicationOrder",
        "id": "MedicationOrder-42",
        "extension": [
          {
            "url": "http://mihin.org/fhir/templateId",
            "valueString": "2.16.840.1.113883.10.20.22.4.42"
          },
          {
            "url": "http://mihin.org/fhir/templateId",
            "valueString": "2.16.840.1.113883.10.20.24.3.47"
          }
        ],
        "identifier": [
          {
            "system": "http://hl7.org/fhir/identifier",
            "value": "1.3.6.1.4.1.115:579f4eb5aeac500a550c5cb7"
          }
        ],
        "status": "completed",
        "medicationReference": {
          "reference": "http://example.org/fhir/Medication/example",
          "display": "example medication"
        },
        "patient": {
          "reference": "Patient/Patient-12216",
          "display": "3 N  N CA Male"
        },
        "prescriber": {
          "reference": "Practitioner/Practitioner-12208",
          "display": "Jay McCann Sawyer MD"
        }
      },
      "request": {
        "method": "PUT",
        "url": "http://localhost:8080/fhir/baseDstu2/MedicationOrder/MedicationOrder-42"
      }
    },
    {
      "fullUrl": "http://localhost:8080/fhir/baseDstu2/MedicationOrder/MedicationOrder-43",
      "resource": {
        "resourceType": "MedicationOrder",
        "id": "MedicationOrder-43",
        "extension": [
          {
            "url": "http://mihin.org/fhir/templateId",
            "valueString": "2.16.840.1.113883.10.20.22.4.42"
          },
          {
            "url": "http://mihin.org/fhir/templateId",
            "valueString": "2.16.840.1.113883.10.20.24.3.47"
          }
        ],
        "identifier": [
          {
            "system": "http://hl7.org/fhir/identifier",
            "value": "1.3.6.1.4.1.115:579f4eb5aeac500a550c5cb8"
          }
        ],
        "status": "completed",
        "medicationReference": {
          "reference": "http://example.org/fhir/Medication/example",
          "display": "example medication"
        },
        "patient": {
          "reference": "Patient/Patient-12216",
          "display": "3 N  N CA Male"
        },
        "prescriber": {
          "reference": "Practitioner/Practitioner-12208",
          "display": "Jay McCann Sawyer MD"
        }
      },
      "request": {
        "method": "PUT",
        "url": "http://localhost:8080/fhir/baseDstu2/MedicationOrder/MedicationOrder-43"
      }
    },
    {
      "fullUrl": "http://localhost:8080/fhir/baseDstu2/MedicationOrder/MedicationOrder-44",
      "resource": {
        "resourceType": "MedicationOrder",
        "id": "MedicationOrder-44",
        "extension": [
          {
            "url": "http://mihin.org/fhir/templateId",
            "valueString": "2.16.840.1.113883.10.20.22.4.42"
          },
          {
            "url": "http://mihin.org/fhir/templateId",
            "valueString": "2.16.840.1.113883.10.20.24.3.47"
          }
        ],
        "identifier": [
          {
            "system": "http://hl7.org/fhir/identifier",
            "value": "1.3.6.1.4.1.115:579f4eb5aeac500a550c5cb6"
          }
        ],
        "status": "completed",
        "medicationReference": {
          "reference": "http://example.org/fhir/Medication/example",
          "display": "example medication"
        },
        "patient": {
          "reference": "Patient/Patient-12216",
          "display": "3 N  N CA Male"
        },
        "prescriber": {
          "reference": "Practitioner/Practitioner-12208",
          "display": "Jay McCann Sawyer MD"
        }
      },
      "request": {
        "method": "PUT",
        "url": "http://localhost:8080/fhir/baseDstu2/MedicationOrder/MedicationOrder-44"
      }
    },
    {
      "fullUrl": "http://localhost:8080/fhir/baseDstu2/MedicationOrder/MedicationOrder-45",
      "resource": {
        "resourceType": "MedicationOrder",
        "id": "MedicationOrder-45",
        "extension": [
          {
            "url": "http://mihin.org/fhir/templateId",
            "valueString": "2.16.840.1.113883.10.20.22.4.42"
          },
          {
            "url": "http://mihin.org/fhir/templateId",
            "valueString": "2.16.840.1.113883.10.20.24.3.47"
          }
        ],
        "identifier": [
          {
            "system": "http://hl7.org/fhir/identifier",
            "value": "1.3.6.1.4.1.115:579f4eb5aeac500a550c5cb9"
          }
        ],
        "status": "completed",
        "medicationReference": {
          "reference": "http://example.org/fhir/Medication/example",
          "display": "example medication"
        },
        "patient": {
          "reference": "Patient/Patient-12216",
          "display": "3 N  N CA Male"
        },
        "prescriber": {
          "reference": "Practitioner/Practitioner-12208",
          "display": "Jay McCann Sawyer MD"
        }
      },
      "request": {
        "method": "PUT",
        "url": "http://localhost:8080/fhir/baseDstu2/MedicationOrder/MedicationOrder-45"
      }
    },
    {
      "fullUrl": "http://localhost:8080/fhir/baseDstu2/MedicationOrder/MedicationOrder-46",
      "resource": {
        "resourceType": "MedicationOrder",
        "id": "MedicationOrder-46",
        "extension": [
          {
            "url": "http://mihin.org/fhir/templateId",
            "valueString": "2.16.840.1.113883.10.20.22.4.42"
          },
          {
            "url": "http://mihin.org/fhir/templateId",
            "valueString": "2.16.840.1.113883.10.20.24.3.47"
          }
        ],
        "identifier": [
          {
            "system": "http://hl7.org/fhir/identifier",
            "value": "1.3.6.1.4.1.115:579f4eb5aeac500a550c5cba"
          }
        ],
        "status": "completed",
        "medicationReference": {
          "reference": "http://example.org/fhir/Medication/example",
          "display": "example medication"
        },
        "patient": {
          "reference": "Patient/Patient-12216",
          "display": "3 N  N CA Male"
        },
        "prescriber": {
          "reference": "Practitioner/Practitioner-12208",
          "display": "Jay McCann Sawyer MD"
        }
      },
      "request": {
        "method": "PUT",
        "url": "http://localhost:8080/fhir/baseDstu2/MedicationOrder/MedicationOrder-46"
      }
    },
    {
      "fullUrl": "http://localhost:8080/fhir/baseDstu2/Condition/Condition-47",
      "resource": {
        "resourceType": "Condition",
        "id": "Condition-47",
        "extension": [
          {
            "url": "http://mihin.org/fhir/templateId",
            "valueString": "2.16.840.1.113883.10.20.22.4.3"
          },
          {
            "url": "http://mihin.org/fhir/templateId",
            "valueString": "2.16.840.1.113883.10.20.24.3.137"
          }
        ],
        "clinicalStatus": "active",
        "verificationStatus": "confirmed",
        "category": {
          "coding": [
            {
              "system": "http://hl7.org/fhir/condition-category",
              "code": "diagnosis",
              "display": "Diagnosis"
            }
          ],
          "text": "This is a judgment made by a healthcare provider that the patient has a particular disease or condition"
        },
        "code": {
          "coding": [
            {
              "system": "http://snomed.info/sct",
              "code": "285312008"
            }
          ],
          "text": "Diagnosis: Colon Cancer"
        },
        "subject": {
          "reference": "Patient/Patient-12216",
          "display": "3 N  N CA Male"
        },
        "dateRecorded": "2015-11-13",
        "asserter": {
          "reference": "Practitioner/Practitioner-12208",
          "display": "Jay McCann Sawyer MD"
        }
      },
      "request": {
        "method": "PUT",
        "url": "http://localhost:8080/fhir/baseDstu2/Condition/Condition-47"
      }
    },
    {
      "fullUrl": "http://localhost:8080/fhir/baseDstu2/Condition/Condition-48",
      "resource": {
        "resourceType": "Condition",
        "id": "Condition-48",
        "extension": [
          {
            "url": "http://mihin.org/fhir/templateId",
            "valueString": "2.16.840.1.113883.10.20.22.4.3"
          },
          {
            "url": "http://mihin.org/fhir/templateId",
            "valueString": "2.16.840.1.113883.10.20.24.3.137"
          }
        ],
        "clinicalStatus": "active",
        "verificationStatus": "confirmed",
        "category": {
          "coding": [
            {
              "system": "http://hl7.org/fhir/condition-category",
              "code": "diagnosis",
              "display": "Diagnosis"
            }
          ],
          "text": "This is a judgment made by a healthcare provider that the patient has a particular disease or condition"
        },
        "code": {
          "coding": [
            {
              "system": "http://snomed.info/sct",
              "code": "285312008"
            }
          ],
          "text": "Diagnosis: Colon Cancer"
        },
        "subject": {
          "reference": "Patient/Patient-12216",
          "display": "3 N  N CA Male"
        },
        "dateRecorded": "2015-11-13",
        "asserter": {
          "reference": "Practitioner/Practitioner-12208",
          "display": "Jay McCann Sawyer MD"
        }
      },
      "request": {
        "method": "PUT",
        "url": "http://localhost:8080/fhir/baseDstu2/Condition/Condition-48"
      }
    },
    {
      "fullUrl": "http://localhost:8080/fhir/baseDstu2/Procedure/Procedure-49",
      "resource": {
        "resourceType": "Procedure",
        "id": "Procedure-49",
        "extension": [
          {
            "url": "http://mihin.org/fhir/templateId",
            "valueString": "2.16.840.1.113883.10.20.24.3.64"
          },
          {
            "url": "http://mihin.org/fhir/templateId",
            "valueString": "2.16.840.1.113883.10.20.22.4.14"
          }
        ],
        "identifier": [
          {
            "system": "http://hl7.org/fhir/identifier",
            "value": "1.3.6.1.4.1.115:579f4eb5aeac500a550c5cbb"
          }
        ],
        "subject": {
          "reference": "Patient/Patient-12216",
          "display": "3 N  N CA Male"
        },
        "status": "completed",
        "category": {
          "coding": [
            {
              "system": "http://snomed.info/sct",
              "code": "387713003",
              "display": "Surgical Procedure"
            }
          ]
        },
        "code": {
          "coding": [
            {
              "system": "http://snomed.info/sct",
              "code": "86198006"
            }
          ],
          "text": "Procedure, Performed: Influenza Vaccination"
        },
        "notPerformed": true,
        "performer": [
          {
            "actor": {
              "reference": "Practitioner/Practitioner-12208",
              "display": "Jay McCann Sawyer MD"
            },
            "role": {
              "coding": [
                {
                  "system": "http://hl7.org/fhir/ValueSet/performer-role",
                  "code": "112247003",
                  "display": "Medical doctor (occupation)"
                }
              ]
            }
          }
        ],
        "performedPeriod": {
          "start": "2014-10-12T08:30:00-04:00",
          "end": "2014-10-12T08:30:00-04:00"
        }
      },
      "request": {
        "method": "PUT",
        "url": "http://localhost:8080/fhir/baseDstu2/Procedure/Procedure-49"
      }
    },
    {
      "fullUrl": "http://localhost:8080/fhir/baseDstu2/Observation/Observation-50",
      "resource": {
        "resourceType": "Observation",
        "id": "Observation-50",
        "extension": [
          {
            "url": "http://mihin.org/fhir/templateId",
            "valueString": "2.16.840.1.113883.10.20.22.4.69"
          },
          {
            "url": "http://mihin.org/fhir/templateId",
            "valueString": "2.16.840.1.113883.10.20.24.3.69"
          }
        ],
        "identifier": [
          {
            "system": "http://hl7.org/fhir/identifier",
            "value": "1.3.6.1.4.1.115:579f4eb5aeac500a550c5cc0"
          }
        ],
        "status": "final",
        "code": {
          "coding": [
            {
              "system": "http://loinc.org",
              "code": "73832-8"
            }
          ],
          "text": "Risk Category Assessment: Adult Depression Screening"
        },
        "subject": {
          "reference": "Patient/Patient-12216",
          "display": "3 N  N CA Male"
        },
        "issued": "2015-11-23T08:10:00-05:00",
        "performer": [
          {
            "reference": "Practitioner/Practitioner-12208",
            "display": "Jay McCann Sawyer MD"
          }
        ]
      },
      "request": {
        "method": "PUT",
        "url": "http://localhost:8080/fhir/baseDstu2/Observation/Observation-50"
      }
    }
  ]
}