{
  "resourceType": "Bundle",
  "id": "load-patient-12219",
  "meta": {
    "versionId": "1",
    "lastUpdated": "2016-09-13T21:24:09.836+00:00"
  },
  "type": "transaction",
  "entry": [
    {
      "fullUrl": "http://localhost:8080/fhir/baseDstu2/Patient/Patient-12219",
      "resource": {
        "resourceType": "Patient",
        "id": "Patient-12219",
        "extension": [
          {
            "url": "http://hl7.org/fhir/StructureDefinition/us-core-race",
            "valueCodeableConcept": {
              "coding": [
                {
                  "system": "http://hl7.org/fhir/v3/Race",
                  "code": "2106-3",
                  "display": "White"
                }
              ]
            }
          },
          {
            "url": "http://hl7.org/fhir/StructureDefinition/us-core-ethnicity",
            "valueCodeableConcept": {
              "coding": [
                {
                  "system": "http://hl7.org/fhir/v3/Ethnicity",
                  "code": "2186-5",
                  "display": "Not Hispanic or Latino"
                }
              ]
            }
          },
          {
            "url": "http://hl7.org/fhir/StructureDefinition/us-core-religion",
            "valueCodeableConcept": {
              "coding": [
                {
                  "system": "http://hl7.org/fhir/v3/ReligiousAffiliation",
                  "code": "1023",
                  "display": "Islam"
                }
              ]
            }
          }
        ],
        "identifier": [
          {
            "use": "official",
            "type": {
              "coding": [
                {
                  "system": "http://hl7.org/fhir/identifier-type",
                  "code": "SB",
                  "display": "Social Beneficiary Identifier"
                }
              ],
              "text": "Michigan Common Key Service Identifier"
            },
            "system": "http://mihin.org/fhir/cks",
            "value": "8e5cf0dba949439aa5a1552dd922e2ce"
          }
        ],
        "active": false,
        "name": [
          {
            "family": [
              "N GP Adult"
            ],
            "given": [
              "2 N"
            ]
          }
        ],
        "telecom": [
          {
            "system": "phone",
            "value": "989-555-6856",
            "use": "home"
          },
          {
            "system": "phone",
            "value": "989-555-6369",
            "use": "work"
          },
          {
            "extension": [
              {
                "url": "http://hl7.org/fhir/StructureDefinition/us-core-direct",
                "valueBoolean": true
              }
            ],
            "system": "email",
            "value": "2.N.N.GP.Adult@direct.mihintest.org",
            "use": "home"
          }
        ],
        "gender": "female",
        "birthDate": "1980-05-29",
        "address": [
          {
            "line": [
              "202 Burlington Rd."
            ],
            "city": "Bedford",
            "state": "MA",
            "postalCode": "01730"
          }
        ]
      },
      "request": {
        "method": "PUT",
        "url": "http://localhost:8080/fhir/baseDstu2/Patient/Patient-12219"
      }
    },
    {
      "fullUrl": "http://localhost:8080/fhir/baseDstu2/Practitioner/Practitioner-12208",
      "resource": {
        "resourceType": "Practitioner",
        "id": "Practitioner-12208",
        "extension": [
          {
            "url": "http://hl7.org/fhir/StructureDefinition/us-core-race",
            "valueCodeableConcept": {
              "coding": [
                {
                  "system": "http://hl7.org/fhir/v3/Race",
                  "code": "2056-0",
                  "display": "Black"
                }
              ]
            }
          },
          {
            "url": "http://hl7.org/fhir/StructureDefinition/us-core-ethnicity",
            "valueCodeableConcept": {
              "coding": [
                {
                  "system": "http://hl7.org/fhir/v3/Ethnicity",
                  "code": "2186-5",
                  "display": "Not Hispanic or Latino"
                }
              ]
            }
          },
          {
            "url": "http://gov.onc.fhir.extension.taxonomy",
            "valueCodeableConcept": {
              "coding": [
                {
                  "system": "http://org.nucc.taxonomy",
                  "code": "208D00000X",
                  "display": "General Practice"
                }
              ]
            }
          },
          {
            "url": "http://org.mihin.fhir.extension.electronic-service",
            "valueReference": {
              "reference": "ElectronicService/ElectronicService-2415",
              "display": "Jay.M.Sawyer@direct.mihintest.org"
            }
          }
        ],
        "identifier": [
          {
            "use": "official",
            "type": {
              "coding": [
                {
                  "system": "http://hl7.org/fhir/identifier-type",
                  "code": "SB",
                  "display": "Social Beneficiary Identifier"
                }
              ],
              "text": "US Social Security Number"
            },
            "system": "http://hl7.org/fhir/sid/us-ssn",
            "value": "000012208"
          },
          {
            "use": "official",
            "type": {
              "coding": [
                {
                  "system": "http://hl7.org/fhir/v2/0203",
                  "code": "PRN",
                  "display": "Provider number"
                }
              ],
              "text": "US National Provider Identifier"
            },
            "system": "http://hl7.org/fhir/sid/us-npi",
            "value": "9999912208"
          },
          {
            "use": "official",
            "type": {
              "coding": [
                {
                  "system": "http://hl7.org/fhir/identifier-type",
                  "code": "SB",
                  "display": "Social Beneficiary Identifier"
                }
              ],
              "text": "Michigan Common Key Service Identifier"
            },
            "system": "http://mihin.org/fhir/cks",
            "value": "c6cc1bbaf5ea41c5a0d267e3a655def1"
          }
        ],
        "name": [
          {
            "family": [
              "Sawyer"
            ],
            "given": [
              "Jay",
              "McCann"
            ],
            "suffix": [
              "MD"
            ]
          }
        ],
        "telecom": [
          {
            "system": "phone",
            "value": "989-555-8443",
            "use": "home"
          },
          {
            "system": "phone",
            "value": "989-555-5764",
            "use": "work"
          }
        ],
        "address": [
          {
            "line": [
              "77 S Pine Place"
            ],
            "city": "Beaverton",
            "state": "MI",
            "postalCode": "48612"
          }
        ],
        "gender": "male",
        "birthDate": "1970-08-07",
        "qualification": [
          {
            "identifier": [
              {
                "use": "official",
                "type": {
                  "coding": [
                    {
                      "system": "http://hl7.org/fhir/v2/0203",
                      "code": "MD",
                      "display": "Medical License number"
                    }
                  ],
                  "text": "Michigan Medical License"
                },
                "system": "http://michigan.gov/fhir/medical-license",
                "value": "LARA-12208",
                "assigner": {
                  "display": "State of Michigan"
                }
              }
            ],
            "code": {
              "coding": [
                {
                  "system": "http://michigan.gov/lara/license-type",
                  "code": "4305",
                  "display": "Medical Doctor"
                }
              ]
            },
            "issuer": {
              "reference": "Organization/Organization-2000",
              "display": "Michigan Department of Licensing and Regulatory Affairs"
            }
          }
        ]
      },
      "request": {
        "method": "PUT",
        "url": "http://localhost:8080/fhir/baseDstu2/Practitioner/Practitioner-12208"
      }
    },
    {
      "fullUrl": "http://localhost:8080/fhir/baseDstu2/Organization/Organization-2002",
      "resource": {
        "resourceType": "Organization",
        "id": "Organization-2002",
        "extension": [
          {
            "url": "http://org.mihin.fhir.extension.organization-license",
            "valueIdentifier": {
              "use": "official",
              "type": {
                "coding": [
                  {
                    "system": "http://gov.michigan.fhir.organization-license-type",
                    "code": "PRACTICE"
                  }
                ],
                "text": "Michigan Medical Practice License"
              },
              "system": "http://gov.michigan.fhir.organization-license",
              "value": "LARA-ORG-2002",
              "assigner": {
                "display": "State of Michigan"
              }
            }
          },
          {
            "url": "http://gov.onc.fhir.extension.taxonomy",
            "valueCodeableConcept": {
              "coding": [
                {
                  "system": "http://org.nucc.taxonomy",
                  "code": "261Q00000X",
                  "display": "Clinic/Center"
                }
              ]
            }
          },
          {
            "url": "http://org.mihin.fhir.extension.electronic-service",
            "valueReference": {
              "reference": "ElectronicService/ElectronicService-50",
              "display": "Sun.Hill.Physicians@direct.test.mihin.org"
            }
          }
        ],
        "identifier": [
          {
            "use": "official",
            "system": "http://www.hl7.org/oid/",
            "value": "1.2.3.4.5.9.99.999.9999.2002"
          },
          {
            "use": "official",
            "type": {
              "coding": [
                {
                  "system": "http://hl7.org/fhir/v2/0203",
                  "code": "PRN",
                  "display": "Provider number"
                }
              ],
              "text": "US National Provider Identifier"
            },
            "system": "http://hl7.org/fhir/sid/us-npi",
            "value": "9999992002"
          }
        ],
        "active": true,
        "type": {
          "text": "Clinic/Center"
        },
        "name": "Sun Hill Physicians",
        "telecom": [
          {
            "system": "phone",
            "value": "231-555-9381",
            "use": "work"
          }
        ],
        "address": [
          {
            "line": [
              "261 Ninth Street"
            ],
            "city": "Bitely",
            "state": "MI",
            "postalCode": "49309"
          }
        ]
      },
      "request": {
        "method": "PUT",
        "url": "http://localhost:8080/fhir/baseDstu2/Organization/Organization-2002"
      }
    },
    {
      "fullUrl": "http://localhost:8080/fhir/baseDstu2/Encounter/Encounter-83",
      "resource": {
        "resourceType": "Encounter",
        "id": "Encounter-83",
        "extension": [
          {
            "url": "http://mihin.org/fhir/templateId",
            "valueString": "2.16.840.1.113883.10.20.22.4.49"
          },
          {
            "url": "http://mihin.org/fhir/templateId",
            "valueString": "2.16.840.1.113883.10.20.24.3.23"
          }
        ],
        "status": "finished",
        "class": {
          "system": "http://hl7.org/fhir/ValueSet/v3-ActEncounterCode",
          "code": "outpatient"
        },
        "type": [
          {
            "coding": [
              {
                "system": "http://snomed.info/sct",
                "code": "390906007"
              }
            ],
            "text": "Encounter, Performed: Blood Pressure Visit"
          }
        ],
        "patient": {
          "reference": "Patient/Patient-12219",
          "display": "2 N  N GP Adult"
        },
        "participant": [
          {
            "period": {
              "start": "2015-04-03T08:00:00-04:00",
              "end": "2015-04-03T08:15:00-04:00"
            },
            "individual": {
              "reference": "Practitioner/Practitioner-12208",
              "display": "Jay McCann Sawyer MD"
            }
          }
        ],
        "serviceProvider": {
          "reference": "Organization/Organization-2002",
          "display": "Sun Hill Physicians"
        }
      },
      "request": {
        "method": "PUT",
        "url": "http://localhost:8080/fhir/baseDstu2/Encounter/Encounter-83"
      }
    },
    {
      "fullUrl": "http://localhost:8080/fhir/baseDstu2/Encounter/Encounter-84",
      "resource": {
        "resourceType": "Encounter",
        "id": "Encounter-84",
        "extension": [
          {
            "url": "http://mihin.org/fhir/templateId",
            "valueString": "2.16.840.1.113883.10.20.22.4.49"
          },
          {
            "url": "http://mihin.org/fhir/templateId",
            "valueString": "2.16.840.1.113883.10.20.24.3.23"
          }
        ],
        "status": "finished",
        "class": {
          "system": "http://hl7.org/fhir/ValueSet/v3-ActEncounterCode",
          "code": "outpatient"
        },
        "type": [
          {
            "coding": [
              {
                "system": "http://www.ama-assn.org/go/cpt",
                "code": "99213"
              }
            ],
            "text": "Encounter, Performed: Bmi Encounter Code Set"
          }
        ],
        "patient": {
          "reference": "Patient/Patient-12219",
          "display": "2 N  N GP Adult"
        },
        "participant": [
          {
            "period": {
              "start": "2015-06-23T08:00:00-04:00",
              "end": "2015-06-23T08:15:00-04:00"
            },
            "individual": {
              "reference": "Practitioner/Practitioner-12208",
              "display": "Jay McCann Sawyer MD"
            }
          }
        ],
        "serviceProvider": {
          "reference": "Organization/Organization-2002",
          "display": "Sun Hill Physicians"
        }
      },
      "request": {
        "method": "PUT",
        "url": "http://localhost:8080/fhir/baseDstu2/Encounter/Encounter-84"
      }
    },
    {
      "fullUrl": "http://localhost:8080/fhir/baseDstu2/Coverage/Coverage-85",
      "resource": {
        "resourceType": "Coverage",
        "id": "Coverage-85",
        "extension": [
          {
            "url": "http://mihin.org/fhir/templateId",
            "valueString": "2.16.840.1.113883.10.20.24.3.55"
          }
        ],
        "status": "active",
        "issuerIdentifier": {
          "system": "http://www.example.org/",
          "value": "example-issuer"
        },
        "period": {
          "start": "2008-01-01T05:00:00-05:00"
        },
        "type": {
          "system": "2.16.840.1.113883.3.221.5",
          "code": "349"
        },
        "planholderReference": {
          "reference": "Patient/Patient-12219",
          "display": "2 N  N GP Adult"
        },
        "beneficiaryReference": {
          "reference": "Patient/Patient-12219",
          "display": "2 N  N GP Adult"
        },
        "relationship": {
          "system": "http://hl7.org/fhir/policyholder-relationship",
          "code": "self"
        },
        "identifier": [
          {
            "system": "http://hl7.org/fhir/identifier",
            "value": "1.3.6.1.4.1.115:579f4eb5aeac500a550c5c06"
          }
        ]
      },
      "request": {
        "method": "PUT",
        "url": "http://localhost:8080/fhir/baseDstu2/Coverage/Coverage-85"
      }
    },
    {
      "fullUrl": "http://localhost:8080/fhir/baseDstu2/Observation/Observation-86",
      "resource": {
        "resourceType": "Observation",
        "id": "Observation-86",
        "extension": [
          {
            "url": "http://mihin.org/fhir/templateId",
            "valueString": "2.16.840.1.113883.10.20.22.4.69"
          },
          {
            "url": "http://mihin.org/fhir/templateId",
            "valueString": "2.16.840.1.113883.10.20.24.3.69"
          }
        ],
        "identifier": [
          {
            "system": "http://hl7.org/fhir/identifier",
            "value": "1.3.6.1.4.1.115:579f4eb5aeac500a550c5c05"
          }
        ],
        "status": "final",
        "code": {
          "coding": [
            {
              "system": "urn:oid:http://loinc.org",
              "code": "72166-2"
            }
          ],
          "text": "Risk Category Assessment: Tobacco Use Screening"
        },
        "subject": {
          "reference": "Patient/Patient-12219",
          "display": "2 N  N GP Adult"
        },
        "issued": "2015-06-23T08:15:00-04:00",
        "performer": [
          {
            "reference": "Practitioner/Practitioner-12208",
            "display": "Jay McCann Sawyer MD"
          }
        ]
      },
      "request": {
        "method": "PUT",
        "url": "http://localhost:8080/fhir/baseDstu2/Observation/Observation-86"
      }
    },
    {
      "fullUrl": "http://localhost:8080/fhir/baseDstu2/CarePlan/CarePlan-87",
      "resource": {
        "resourceType": "CarePlan",
        "id": "CarePlan-87",
        "extension": [
          {
            "url": "http://mihin.org/fhir/templateId",
            "valueString": "2.16.840.1.113883.10.20.22.4.39"
          },
          {
            "url": "http://mihin.org/fhir/templateId",
            "valueString": "2.16.840.1.113883.10.20.24.3.31"
          }
        ],
        "subject": {
          "reference": "Patient/Patient-12219",
          "display": "2 N  N GP Adult"
        },
        "status": "completed",
        "period": {
          "start": "2015-06-23T08:00:00-04:00",
          "end": "2015-06-23T08:00:00-04:00"
        },
        "author": [
          {
            "reference": "Practitioner/Practitioner-12208",
            "display": "Jay McCann Sawyer MD"
          }
        ],
        "category": [
          {
            "coding": [
              {
                "system": "http://snomed.info/sct",
                "code": "133918004"
              }
            ],
            "text": "Intervention, Order: Palliative Care"
          }
        ],
        "description": "Intervention, Order: Palliative Care"
      },
      "request": {
        "method": "PUT",
        "url": "http://localhost:8080/fhir/baseDstu2/CarePlan/CarePlan-87"
      }
    },
    {
      "fullUrl": "http://localhost:8080/fhir/baseDstu2/Observation/Observation-88",
      "resource": {
        "resourceType": "Observation",
        "id": "Observation-88",
        "extension": [
          {
            "url": "http://mihin.org/fhir/templateId",
            "valueString": "2.16.840.1.113883.10.20.22.4.13"
          },
          {
            "url": "http://mihin.org/fhir/templateId",
            "valueString": "2.16.840.1.113883.10.20.24.3.59"
          }
        ],
        "identifier": [
          {
            "system": "http://hl7.org/fhir/identifier",
            "value": "1.3.6.1.4.1.115:579f4eb5aeac500a550c5c04"
          }
        ],
        "status": "final",
        "code": {
          "coding": [
            {
              "system": "urn:oid:http://loinc.org",
              "code": "39156-5"
            }
          ],
          "text": "Physical Exam, Performed: Bmi Loinc Value"
        },
        "subject": {
          "reference": "Patient/Patient-12219",
          "display": "2 N  N GP Adult"
        },
        "issued": "2015-06-23T08:00:00-04:00",
        "performer": [
          {
            "reference": "Practitioner/Practitioner-12208",
            "display": "Jay McCann Sawyer MD"
          }
        ]
      },
      "request": {
        "method": "PUT",
        "url": "http://localhost:8080/fhir/baseDstu2/Observation/Observation-88"
      }
    },
    {
      "fullUrl": "http://localhost:8080/fhir/baseDstu2/Condition/Condition-89",
      "resource": {
        "resourceType": "Condition",
        "id": "Condition-89",
        "extension": [
          {
            "url": "http://mihin.org/fhir/templateId",
            "valueString": "2.16.840.1.113883.10.20.22.4.3"
          },
          {
            "url": "http://mihin.org/fhir/templateId",
            "valueString": "2.16.840.1.113883.10.20.24.3.137"
          }
        ],
        "clinicalStatus": "active",
        "verificationStatus": "confirmed",
        "category": {
          "coding": [
            {
              "system": "http://hl7.org/fhir/condition-category",
              "code": "diagnosis",
              "display": "Diagnosis"
            }
          ],
          "text": "This is a judgment made by a healthcare provider that the patient has a particular disease or condition"
        },
        "code": {
          "coding": [
            {
              "system": "http://snomed.info/sct",
              "code": "10725009"
            }
          ],
          "text": "Diagnosis: Essential Hypertension"
        },
        "subject": {
          "reference": "Patient/Patient-12219",
          "display": "2 N  N GP Adult"
        },
        "dateRecorded": "2002-06-03",
        "asserter": {
          "reference": "Practitioner/Practitioner-12208",
          "display": "Jay McCann Sawyer MD"
        }
      },
      "request": {
        "method": "PUT",
        "url": "http://localhost:8080/fhir/baseDstu2/Condition/Condition-89"
      }
    },
    {
      "fullUrl": "http://localhost:8080/fhir/baseDstu2/Condition/Condition-90",
      "resource": {
        "resourceType": "Condition",
        "id": "Condition-90",
        "extension": [
          {
            "url": "http://mihin.org/fhir/templateId",
            "valueString": "2.16.840.1.113883.10.20.22.4.3"
          },
          {
            "url": "http://mihin.org/fhir/templateId",
            "valueString": "2.16.840.1.113883.10.20.24.3.137"
          }
        ],
        "clinicalStatus": "active",
        "verificationStatus": "confirmed",
        "category": {
          "coding": [
            {
              "system": "http://hl7.org/fhir/condition-category",
              "code": "diagnosis",
              "display": "Diagnosis"
            }
          ],
          "text": "This is a judgment made by a healthcare provider that the patient has a particular disease or condition"
        },
        "code": {
          "coding": [
            {
              "system": "http://snomed.info/sct",
              "code": "10725009"
            }
          ],
          "text": "Diagnosis: Essential Hypertension"
        },
        "subject": {
          "reference": "Patient/Patient-12219",
          "display": "2 N  N GP Adult"
        },
        "dateRecorded": "2002-06-03",
        "asserter": {
          "reference": "Practitioner/Practitioner-12208",
          "display": "Jay McCann Sawyer MD"
        }
      },
      "request": {
        "method": "PUT",
        "url": "http://localhost:8080/fhir/baseDstu2/Condition/Condition-90"
      }
    },
    {
      "fullUrl": "http://localhost:8080/fhir/baseDstu2/Observation/Observation-91",
      "resource": {
        "resourceType": "Observation",
        "id": "Observation-91",
        "extension": [
          {
            "url": "http://mihin.org/fhir/templateId",
            "valueString": "2.16.840.1.113883.10.20.22.4.13"
          },
          {
            "url": "http://mihin.org/fhir/templateId",
            "valueString": "2.16.840.1.113883.10.20.24.3.59"
          }
        ],
        "identifier": [
          {
            "system": "http://hl7.org/fhir/identifier",
            "value": "1.3.6.1.4.1.115:579f4eb5aeac500a550c5c01"
          }
        ],
        "status": "final",
        "code": {
          "coding": [
            {
              "system": "urn:oid:http://loinc.org",
              "code": "8480-6"
            }
          ],
          "text": "Physical Exam, Performed: Systolic Blood Pressure"
        },
        "subject": {
          "reference": "Patient/Patient-12219",
          "display": "2 N  N GP Adult"
        },
        "issued": "2015-04-03T08:15:00-04:00",
        "performer": [
          {
            "reference": "Practitioner/Practitioner-12208",
            "display": "Jay McCann Sawyer MD"
          }
        ]
      },
      "request": {
        "method": "PUT",
        "url": "http://localhost:8080/fhir/baseDstu2/Observation/Observation-91"
      }
    },
    {
      "fullUrl": "http://localhost:8080/fhir/baseDstu2/Procedure/Procedure-92",
      "resource": {
        "resourceType": "Procedure",
        "id": "Procedure-92",
        "extension": [
          {
            "url": "http://mihin.org/fhir/templateId",
            "valueString": "2.16.840.1.113883.10.20.24.3.64"
          },
          {
            "url": "http://mihin.org/fhir/templateId",
            "valueString": "2.16.840.1.113883.10.20.22.4.14"
          }
        ],
        "identifier": [
          {
            "system": "http://hl7.org/fhir/identifier",
            "value": "1.3.6.1.4.1.115:579f4eb5aeac500a550c5bff"
          }
        ],
        "subject": {
          "reference": "Patient/Patient-12219",
          "display": "2 N  N GP Adult"
        },
        "status": "completed",
        "category": {
          "coding": [
            {
              "system": "http://snomed.info/sct",
              "code": "387713003",
              "display": "Surgical Procedure"
            }
          ]
        },
        "code": {
          "coding": [
            {
              "system": "http://snomed.info/sct",
              "code": "302497006"
            }
          ],
          "text": "Procedure, Performed: Hemodialysis"
        },
        "performer": [
          {
            "actor": {
              "reference": "Practitioner/Practitioner-12208",
              "display": "Jay McCann Sawyer MD"
            },
            "role": {
              "coding": [
                {
                  "system": "http://hl7.org/fhir/ValueSet/performer-role",
                  "code": "112247003",
                  "display": "Medical doctor (occupation)"
                }
              ]
            }
          }
        ],
        "performedPeriod": {
          "start": "2010-06-13T08:00:00-04:00",
          "end": "2010-06-13T11:15:00-04:00"
        }
      },
      "request": {
        "method": "PUT",
        "url": "http://localhost:8080/fhir/baseDstu2/Procedure/Procedure-92"
      }
    },
    {
      "fullUrl": "http://localhost:8080/fhir/baseDstu2/Procedure/Procedure-93",
      "resource": {
        "resourceType": "Procedure",
        "id": "Procedure-93",
        "extension": [
          {
            "url": "http://mihin.org/fhir/templateId",
            "valueString": "2.16.840.1.113883.10.20.24.3.64"
          },
          {
            "url": "http://mihin.org/fhir/templateId",
            "valueString": "2.16.840.1.113883.10.20.22.4.14"
          }
        ],
        "identifier": [
          {
            "system": "http://hl7.org/fhir/identifier",
            "value": "1.3.6.1.4.1.115:579f4eb5aeac500a550c5c00"
          }
        ],
        "subject": {
          "reference": "Patient/Patient-12219",
          "display": "2 N  N GP Adult"
        },
        "status": "completed",
        "category": {
          "coding": [
            {
              "system": "http://snomed.info/sct",
              "code": "387713003",
              "display": "Surgical Procedure"
            }
          ]
        },
        "code": {
          "coding": [
            {
              "system": "http://snomed.info/sct",
              "code": "313030004"
            }
          ],
          "text": "Procedure, Performed: Kidney Transplant"
        },
        "performer": [
          {
            "actor": {
              "reference": "Practitioner/Practitioner-12208",
              "display": "Jay McCann Sawyer MD"
            },
            "role": {
              "coding": [
                {
                  "system": "http://hl7.org/fhir/ValueSet/performer-role",
                  "code": "112247003",
                  "display": "Medical doctor (occupation)"
                }
              ]
            }
          }
        ],
        "performedPeriod": {
          "start": "2013-08-13T08:00:00-04:00",
          "end": "2013-08-13T10:00:00-04:00"
        }
      },
      "request": {
        "method": "PUT",
        "url": "http://localhost:8080/fhir/baseDstu2/Procedure/Procedure-93"
      }
    },
    {
      "fullUrl": "http://localhost:8080/fhir/baseDstu2/Condition/Condition-94",
      "resource": {
        "resourceType": "Condition",
        "id": "Condition-94",
        "extension": [
          {
            "url": "http://mihin.org/fhir/templateId",
            "valueString": "2.16.840.1.113883.10.20.22.4.3"
          },
          {
            "url": "http://mihin.org/fhir/templateId",
            "valueString": "2.16.840.1.113883.10.20.24.3.137"
          }
        ],
        "clinicalStatus": "active",
        "verificationStatus": "confirmed",
        "category": {
          "coding": [
            {
              "system": "http://hl7.org/fhir/condition-category",
              "code": "diagnosis",
              "display": "Diagnosis"
            }
          ],
          "text": "This is a judgment made by a healthcare provider that the patient has a particular disease or condition"
        },
        "code": {
          "coding": [
            {
              "system": "http://snomed.info/sct",
              "code": "231462006"
            }
          ],
          "text": "Diagnosis: Iv Drug Abuse"
        },
        "subject": {
          "reference": "Patient/Patient-12219",
          "display": "2 N  N GP Adult"
        },
        "dateRecorded": "2015-04-13",
        "asserter": {
          "reference": "Practitioner/Practitioner-12208",
          "display": "Jay McCann Sawyer MD"
        }
      },
      "request": {
        "method": "PUT",
        "url": "http://localhost:8080/fhir/baseDstu2/Condition/Condition-94"
      }
    },
    {
      "fullUrl": "http://localhost:8080/fhir/baseDstu2/Condition/Condition-95",
      "resource": {
        "resourceType": "Condition",
        "id": "Condition-95",
        "extension": [
          {
            "url": "http://mihin.org/fhir/templateId",
            "valueString": "2.16.840.1.113883.10.20.22.4.3"
          },
          {
            "url": "http://mihin.org/fhir/templateId",
            "valueString": "2.16.840.1.113883.10.20.24.3.137"
          }
        ],
        "clinicalStatus": "active",
        "verificationStatus": "confirmed",
        "category": {
          "coding": [
            {
              "system": "http://hl7.org/fhir/condition-category",
              "code": "diagnosis",
              "display": "Diagnosis"
            }
          ],
          "text": "This is a judgment made by a healthcare provider that the patient has a particular disease or condition"
        },
        "code": {
          "coding": [
            {
              "system": "http://snomed.info/sct",
              "code": "202794004"
            }
          ],
          "text": "Diagnosis: Low Back Pain"
        },
        "subject": {
          "reference": "Patient/Patient-12219",
          "display": "2 N  N GP Adult"
        },
        "dateRecorded": "2015-04-03",
        "asserter": {
          "reference": "Practitioner/Practitioner-12208",
          "display": "Jay McCann Sawyer MD"
        }
      },
      "request": {
        "method": "PUT",
        "url": "http://localhost:8080/fhir/baseDstu2/Condition/Condition-95"
      }
    },
    {
      "fullUrl": "http://localhost:8080/fhir/baseDstu2/Condition/Condition-96",
      "resource": {
        "resourceType": "Condition",
        "id": "Condition-96",
        "extension": [
          {
            "url": "http://mihin.org/fhir/templateId",
            "valueString": "2.16.840.1.113883.10.20.22.4.3"
          },
          {
            "url": "http://mihin.org/fhir/templateId",
            "valueString": "2.16.840.1.113883.10.20.24.3.137"
          }
        ],
        "clinicalStatus": "active",
        "verificationStatus": "confirmed",
        "category": {
          "coding": [
            {
              "system": "http://hl7.org/fhir/condition-category",
              "code": "diagnosis",
              "display": "Diagnosis"
            }
          ],
          "text": "This is a judgment made by a healthcare provider that the patient has a particular disease or condition"
        },
        "code": {
          "coding": [
            {
              "system": "http://snomed.info/sct",
              "code": "16269008"
            }
          ],
          "text": "Diagnosis: Neurologic Impairment"
        },
        "subject": {
          "reference": "Patient/Patient-12219",
          "display": "2 N  N GP Adult"
        },
        "dateRecorded": "2015-04-03",
        "asserter": {
          "reference": "Practitioner/Practitioner-12208",
          "display": "Jay McCann Sawyer MD"
        }
      },
      "request": {
        "method": "PUT",
        "url": "http://localhost:8080/fhir/baseDstu2/Condition/Condition-96"
      }
    },
    {
      "fullUrl": "http://localhost:8080/fhir/baseDstu2/Condition/Condition-97",
      "resource": {
        "resourceType": "Condition",
        "id": "Condition-97",
        "extension": [
          {
            "url": "http://mihin.org/fhir/templateId",
            "valueString": "2.16.840.1.113883.10.20.22.4.3"
          },
          {
            "url": "http://mihin.org/fhir/templateId",
            "valueString": "2.16.840.1.113883.10.20.24.3.137"
          }
        ],
        "clinicalStatus": "active",
        "verificationStatus": "confirmed",
        "category": {
          "coding": [
            {
              "system": "http://hl7.org/fhir/condition-category",
              "code": "diagnosis",
              "display": "Diagnosis"
            }
          ],
          "text": "This is a judgment made by a healthcare provider that the patient has a particular disease or condition"
        },
        "code": {
          "coding": [
            {
              "system": "http://snomed.info/sct",
              "code": "64665009"
            }
          ],
          "text": "Diagnosis: Trauma"
        },
        "subject": {
          "reference": "Patient/Patient-12219",
          "display": "2 N  N GP Adult"
        },
        "dateRecorded": "2015-04-03",
        "asserter": {
          "reference": "Practitioner/Practitioner-12208",
          "display": "Jay McCann Sawyer MD"
        }
      },
      "request": {
        "method": "PUT",
        "url": "http://localhost:8080/fhir/baseDstu2/Condition/Condition-97"
      }
    },
    {
      "fullUrl": "http://localhost:8080/fhir/baseDstu2/Condition/Condition-98",
      "resource": {
        "resourceType": "Condition",
        "id": "Condition-98",
        "extension": [
          {
            "url": "http://mihin.org/fhir/templateId",
            "valueString": "2.16.840.1.113883.10.20.22.4.3"
          },
          {
            "url": "http://mihin.org/fhir/templateId",
            "valueString": "2.16.840.1.113883.10.20.24.3.137"
          }
        ],
        "clinicalStatus": "active",
        "verificationStatus": "confirmed",
        "category": {
          "coding": [
            {
              "system": "http://hl7.org/fhir/condition-category",
              "code": "diagnosis",
              "display": "Diagnosis"
            }
          ],
          "text": "This is a judgment made by a healthcare provider that the patient has a particular disease or condition"
        },
        "code": {
          "coding": [
            {
              "system": "http://snomed.info/sct",
              "code": "188183000"
            }
          ],
          "text": "Diagnosis: All Cancer"
        },
        "subject": {
          "reference": "Patient/Patient-12219",
          "display": "2 N  N GP Adult"
        },
        "dateRecorded": "2013-11-03",
        "asserter": {
          "reference": "Practitioner/Practitioner-12208",
          "display": "Jay McCann Sawyer MD"
        }
      },
      "request": {
        "method": "PUT",
        "url": "http://localhost:8080/fhir/baseDstu2/Condition/Condition-98"
      }
    },
    {
      "fullUrl": "http://localhost:8080/fhir/baseDstu2/Condition/Condition-99",
      "resource": {
        "resourceType": "Condition",
        "id": "Condition-99",
        "extension": [
          {
            "url": "http://mihin.org/fhir/templateId",
            "valueString": "2.16.840.1.113883.10.20.22.4.3"
          },
          {
            "url": "http://mihin.org/fhir/templateId",
            "valueString": "2.16.840.1.113883.10.20.24.3.137"
          }
        ],
        "clinicalStatus": "active",
        "verificationStatus": "confirmed",
        "category": {
          "coding": [
            {
              "system": "http://hl7.org/fhir/condition-category",
              "code": "diagnosis",
              "display": "Diagnosis"
            }
          ],
          "text": "This is a judgment made by a healthcare provider that the patient has a particular disease or condition"
        },
        "code": {
          "coding": [
            {
              "system": "http://snomed.info/sct",
              "code": "231462006"
            }
          ],
          "text": "Diagnosis: Iv Drug Abuse"
        },
        "subject": {
          "reference": "Patient/Patient-12219",
          "display": "2 N  N GP Adult"
        },
        "dateRecorded": "2015-04-13",
        "asserter": {
          "reference": "Practitioner/Practitioner-12208",
          "display": "Jay McCann Sawyer MD"
        }
      },
      "request": {
        "method": "PUT",
        "url": "http://localhost:8080/fhir/baseDstu2/Condition/Condition-99"
      }
    },
    {
      "fullUrl": "http://localhost:8080/fhir/baseDstu2/Condition/Condition-100",
      "resource": {
        "resourceType": "Condition",
        "id": "Condition-100",
        "extension": [
          {
            "url": "http://mihin.org/fhir/templateId",
            "valueString": "2.16.840.1.113883.10.20.22.4.3"
          },
          {
            "url": "http://mihin.org/fhir/templateId",
            "valueString": "2.16.840.1.113883.10.20.24.3.137"
          }
        ],
        "clinicalStatus": "active",
        "verificationStatus": "confirmed",
        "category": {
          "coding": [
            {
              "system": "http://hl7.org/fhir/condition-category",
              "code": "diagnosis",
              "display": "Diagnosis"
            }
          ],
          "text": "This is a judgment made by a healthcare provider that the patient has a particular disease or condition"
        },
        "code": {
          "coding": [
            {
              "system": "http://snomed.info/sct",
              "code": "188183000"
            }
          ],
          "text": "Diagnosis: All Cancer"
        },
        "subject": {
          "reference": "Patient/Patient-12219",
          "display": "2 N  N GP Adult"
        },
        "dateRecorded": "2013-11-03",
        "asserter": {
          "reference": "Practitioner/Practitioner-12208",
          "display": "Jay McCann Sawyer MD"
        }
      },
      "request": {
        "method": "PUT",
        "url": "http://localhost:8080/fhir/baseDstu2/Condition/Condition-100"
      }
    }
  ]
}