{
  "resourceType": "Bundle",
  "id": "load-patient-12217",
  "meta": {
    "versionId": "1",
    "lastUpdated": "2016-09-13T21:09:10.155+00:00"
  },
  "type": "transaction",
  "entry": [
    {
      "fullUrl": "http://localhost:8080/fhir/baseDstu2/Patient/Patient-12217",
      "resource": {
        "resourceType": "Patient",
        "id": "Patient-12217",
        "extension": [
          {
            "url": "http://hl7.org/fhir/StructureDefinition/us-core-race",
            "valueCodeableConcept": {
              "coding": [
                {
                  "system": "http://hl7.org/fhir/v3/Race",
                  "code": "2106-3",
                  "display": "White"
                }
              ]
            }
          },
          {
            "url": "http://hl7.org/fhir/StructureDefinition/us-core-ethnicity",
            "valueCodeableConcept": {
              "coding": [
                {
                  "system": "http://hl7.org/fhir/v3/Ethnicity",
                  "code": "2186-5",
                  "display": "Not Hispanic or Latino"
                }
              ]
            }
          },
          {
            "url": "http://hl7.org/fhir/StructureDefinition/us-core-religion",
            "valueCodeableConcept": {
              "coding": [
                {
                  "system": "http://hl7.org/fhir/v3/ReligiousAffiliation",
                  "code": "1077",
                  "display": "Protestant"
                }
              ]
            }
          }
        ],
        "identifier": [
          {
            "use": "official",
            "type": {
              "coding": [
                {
                  "system": "http://hl7.org/fhir/identifier-type",
                  "code": "SB",
                  "display": "Social Beneficiary Identifier"
                }
              ],
              "text": "Michigan Common Key Service Identifier"
            },
            "system": "http://mihin.org/fhir/cks",
            "value": "626ed47509764a83ba47a5c0e7a171b8"
          }
        ],
        "active": false,
        "name": [
          {
            "family": [
              "N GP Adult"
            ],
            "given": [
              "1 N"
            ],
            "suffix": [
              "Jr"
            ]
          }
        ],
        "telecom": [
          {
            "system": "phone",
            "value": "269-555-5220",
            "use": "home"
          },
          {
            "system": "phone",
            "value": "269-555-6183",
            "use": "work"
          },
          {
            "extension": [
              {
                "url": "http://hl7.org/fhir/StructureDefinition/us-core-direct",
                "valueBoolean": true
              }
            ],
            "system": "email",
            "value": "1.N.N.GP.Adult@direct.mihintest.org",
            "use": "home"
          }
        ],
        "gender": "female",
        "birthDate": "1972-02-25",
        "address": [
          {
            "line": [
              "202 Burlington Rd."
            ],
            "city": "Bedford",
            "state": "MA",
            "postalCode": "01730"
          }
        ]
      },
      "request": {
        "method": "PUT",
        "url": "http://localhost:8080/fhir/baseDstu2/Patient/Patient-12217"
      }
    },
    {
      "fullUrl": "http://localhost:8080/fhir/baseDstu2/Practitioner/Practitioner-12208",
      "resource": {
        "resourceType": "Practitioner",
        "id": "Practitioner-12208",
        "extension": [
          {
            "url": "http://hl7.org/fhir/StructureDefinition/us-core-race",
            "valueCodeableConcept": {
              "coding": [
                {
                  "system": "http://hl7.org/fhir/v3/Race",
                  "code": "2056-0",
                  "display": "Black"
                }
              ]
            }
          },
          {
            "url": "http://hl7.org/fhir/StructureDefinition/us-core-ethnicity",
            "valueCodeableConcept": {
              "coding": [
                {
                  "system": "http://hl7.org/fhir/v3/Ethnicity",
                  "code": "2186-5",
                  "display": "Not Hispanic or Latino"
                }
              ]
            }
          },
          {
            "url": "http://gov.onc.fhir.extension.taxonomy",
            "valueCodeableConcept": {
              "coding": [
                {
                  "system": "http://org.nucc.taxonomy",
                  "code": "208D00000X",
                  "display": "General Practice"
                }
              ]
            }
          },
          {
            "url": "http://org.mihin.fhir.extension.electronic-service",
            "valueReference": {
              "reference": "ElectronicService/ElectronicService-2415",
              "display": "Jay.M.Sawyer@direct.mihintest.org"
            }
          }
        ],
        "identifier": [
          {
            "use": "official",
            "type": {
              "coding": [
                {
                  "system": "http://hl7.org/fhir/identifier-type",
                  "code": "SB",
                  "display": "Social Beneficiary Identifier"
                }
              ],
              "text": "US Social Security Number"
            },
            "system": "http://hl7.org/fhir/sid/us-ssn",
            "value": "000012208"
          },
          {
            "use": "official",
            "type": {
              "coding": [
                {
                  "system": "http://hl7.org/fhir/v2/0203",
                  "code": "PRN",
                  "display": "Provider number"
                }
              ],
              "text": "US National Provider Identifier"
            },
            "system": "http://hl7.org/fhir/sid/us-npi",
            "value": "9999912208"
          },
          {
            "use": "official",
            "type": {
              "coding": [
                {
                  "system": "http://hl7.org/fhir/identifier-type",
                  "code": "SB",
                  "display": "Social Beneficiary Identifier"
                }
              ],
              "text": "Michigan Common Key Service Identifier"
            },
            "system": "http://mihin.org/fhir/cks",
            "value": "c6cc1bbaf5ea41c5a0d267e3a655def1"
          }
        ],
        "name": [
          {
            "family": [
              "Sawyer"
            ],
            "given": [
              "Jay",
              "McCann"
            ],
            "suffix": [
              "MD"
            ]
          }
        ],
        "telecom": [
          {
            "system": "phone",
            "value": "989-555-8443",
            "use": "home"
          },
          {
            "system": "phone",
            "value": "989-555-5764",
            "use": "work"
          }
        ],
        "address": [
          {
            "line": [
              "77 S Pine Place"
            ],
            "city": "Beaverton",
            "state": "MI",
            "postalCode": "48612"
          }
        ],
        "gender": "male",
        "birthDate": "1970-08-07",
        "qualification": [
          {
            "identifier": [
              {
                "use": "official",
                "type": {
                  "coding": [
                    {
                      "system": "http://hl7.org/fhir/v2/0203",
                      "code": "MD",
                      "display": "Medical License number"
                    }
                  ],
                  "text": "Michigan Medical License"
                },
                "system": "http://michigan.gov/fhir/medical-license",
                "value": "LARA-12208",
                "assigner": {
                  "display": "State of Michigan"
                }
              }
            ],
            "code": {
              "coding": [
                {
                  "system": "http://michigan.gov/lara/license-type",
                  "code": "4305",
                  "display": "Medical Doctor"
                }
              ]
            },
            "issuer": {
              "reference": "Organization/Organization-2000",
              "display": "Michigan Department of Licensing and Regulatory Affairs"
            }
          }
        ]
      },
      "request": {
        "method": "PUT",
        "url": "http://localhost:8080/fhir/baseDstu2/Practitioner/Practitioner-12208"
      }
    },
    {
      "fullUrl": "http://localhost:8080/fhir/baseDstu2/Organization/Organization-2002",
      "resource": {
        "resourceType": "Organization",
        "id": "Organization-2002",
        "extension": [
          {
            "url": "http://org.mihin.fhir.extension.organization-license",
            "valueIdentifier": {
              "use": "official",
              "type": {
                "coding": [
                  {
                    "system": "http://gov.michigan.fhir.organization-license-type",
                    "code": "PRACTICE"
                  }
                ],
                "text": "Michigan Medical Practice License"
              },
              "system": "http://gov.michigan.fhir.organization-license",
              "value": "LARA-ORG-2002",
              "assigner": {
                "display": "State of Michigan"
              }
            }
          },
          {
            "url": "http://gov.onc.fhir.extension.taxonomy",
            "valueCodeableConcept": {
              "coding": [
                {
                  "system": "http://org.nucc.taxonomy",
                  "code": "261Q00000X",
                  "display": "Clinic/Center"
                }
              ]
            }
          },
          {
            "url": "http://org.mihin.fhir.extension.electronic-service",
            "valueReference": {
              "reference": "ElectronicService/ElectronicService-50",
              "display": "Sun.Hill.Physicians@direct.test.mihin.org"
            }
          }
        ],
        "identifier": [
          {
            "use": "official",
            "system": "http://www.hl7.org/oid/",
            "value": "1.2.3.4.5.9.99.999.9999.2002"
          },
          {
            "use": "official",
            "type": {
              "coding": [
                {
                  "system": "http://hl7.org/fhir/v2/0203",
                  "code": "PRN",
                  "display": "Provider number"
                }
              ],
              "text": "US National Provider Identifier"
            },
            "system": "http://hl7.org/fhir/sid/us-npi",
            "value": "9999992002"
          }
        ],
        "active": true,
        "type": {
          "text": "Clinic/Center"
        },
        "name": "Sun Hill Physicians",
        "telecom": [
          {
            "system": "phone",
            "value": "231-555-9381",
            "use": "work"
          }
        ],
        "address": [
          {
            "line": [
              "261 Ninth Street"
            ],
            "city": "Bitely",
            "state": "MI",
            "postalCode": "49309"
          }
        ]
      },
      "request": {
        "method": "PUT",
        "url": "http://localhost:8080/fhir/baseDstu2/Organization/Organization-2002"
      }
    },
    {
      "fullUrl": "http://localhost:8080/fhir/baseDstu2/Encounter/Encounter-51",
      "resource": {
        "resourceType": "Encounter",
        "id": "Encounter-51",
        "extension": [
          {
            "url": "http://mihin.org/fhir/templateId",
            "valueString": "2.16.840.1.113883.10.20.22.4.49"
          },
          {
            "url": "http://mihin.org/fhir/templateId",
            "valueString": "2.16.840.1.113883.10.20.24.3.23"
          }
        ],
        "status": "finished",
        "class": {
          "system": "http://hl7.org/fhir/ValueSet/v3-ActEncounterCode",
          "code": "outpatient"
        },
        "type": [
          {
            "coding": [
              {
                "system": "urn:oid:2.16.840.1.113883.6.12",
                "code": "99203"
              }
            ],
            "text": "Encounter, Performed: Office Visit"
          }
        ],
        "patient": {
          "reference": "Patient/Patient-12217",
          "display": "1 N  N GP Adult Jr"
        },
        "participant": [
          {
            "period": {
              "start": "2015-07-09T08:00:00-04:00",
              "end": "2015-07-09T08:15:00-04:00"
            },
            "individual": {
              "reference": "Practitioner/Practitioner-12208",
              "display": "Jay McCann Sawyer MD"
            }
          }
        ],
        "serviceProvider": {
          "reference": "Organization/Organization-2002",
          "display": "Sun Hill Physicians"
        }
      },
      "request": {
        "method": "PUT",
        "url": "http://localhost:8080/fhir/baseDstu2/Encounter/Encounter-51"
      }
    },
    {
      "fullUrl": "http://localhost:8080/fhir/baseDstu2/Encounter/Encounter-52",
      "resource": {
        "resourceType": "Encounter",
        "id": "Encounter-52",
        "extension": [
          {
            "url": "http://mihin.org/fhir/templateId",
            "valueString": "2.16.840.1.113883.10.20.22.4.49"
          },
          {
            "url": "http://mihin.org/fhir/templateId",
            "valueString": "2.16.840.1.113883.10.20.24.3.23"
          }
        ],
        "status": "finished",
        "class": {
          "system": "http://hl7.org/fhir/ValueSet/v3-ActEncounterCode",
          "code": "outpatient"
        },
        "type": [
          {
            "coding": [
              {
                "system": "urn:oid:2.16.840.1.113883.6.12",
                "code": "99203"
              }
            ],
            "text": "Encounter, Performed: Bmi Encounter Code Set"
          }
        ],
        "patient": {
          "reference": "Patient/Patient-12217",
          "display": "1 N  N GP Adult Jr"
        },
        "participant": [
          {
            "period": {
              "start": "2015-09-11T08:00:00-04:00",
              "end": "2015-09-11T08:30:00-04:00"
            },
            "individual": {
              "reference": "Practitioner/Practitioner-12208",
              "display": "Jay McCann Sawyer MD"
            }
          }
        ],
        "serviceProvider": {
          "reference": "Organization/Organization-2002",
          "display": "Sun Hill Physicians"
        }
      },
      "request": {
        "method": "PUT",
        "url": "http://localhost:8080/fhir/baseDstu2/Encounter/Encounter-52"
      }
    },
    {
      "fullUrl": "http://localhost:8080/fhir/baseDstu2/Coverage/Coverage-53",
      "resource": {
        "resourceType": "Coverage",
        "id": "Coverage-53",
        "extension": [
          {
            "url": "http://mihin.org/fhir/templateId",
            "valueString": "2.16.840.1.113883.10.20.24.3.55"
          }
        ],
        "status": "active",
        "issuerIdentifier": {
          "system": "http://www.example.org/",
          "value": "example-issuer"
        },
        "period": {
          "start": "2008-01-01T05:00:00-05:00"
        },
        "type": {
          "system": "2.16.840.1.113883.3.221.5",
          "code": "349"
        },
        "planholderReference": {
          "reference": "Patient/Patient-12217",
          "display": "1 N  N GP Adult Jr"
        },
        "beneficiaryReference": {
          "reference": "Patient/Patient-12217",
          "display": "1 N  N GP Adult Jr"
        },
        "relationship": {
          "system": "http://hl7.org/fhir/policyholder-relationship",
          "code": "self"
        },
        "identifier": [
          {
            "system": "http://hl7.org/fhir/identifier",
            "value": "1.3.6.1.4.1.115:579f4eb5aeac500a550c5b4d"
          }
        ]
      },
      "request": {
        "method": "PUT",
        "url": "http://localhost:8080/fhir/baseDstu2/Coverage/Coverage-53"
      }
    },
    {
      "fullUrl": "http://localhost:8080/fhir/baseDstu2/Observation/Observation-54",
      "resource": {
        "resourceType": "Observation",
        "id": "Observation-54",
        "extension": [
          {
            "url": "http://mihin.org/fhir/templateId",
            "valueString": "2.16.840.1.113883.10.20.24.3.103"
          }
        ],
        "identifier": [
          {
            "system": "http://hl7.org/fhir/identifier",
            "value": "1.3.6.1.4.1.115:579f4eb5aeac500a550c5b38"
          }
        ],
        "status": "final",
        "code": {
          "coding": [
            {
              "system": "urn:oid:2.16.840.1.113883.5.4",
              "code": "ASSERTION"
            }
          ]
        },
        "subject": {
          "reference": "Patient/Patient-12217",
          "display": "1 N  N GP Adult Jr"
        },
        "issued": "2015-09-11T08:00:00-04:00",
        "performer": [
          {
            "reference": "Practitioner/Practitioner-12208",
            "display": "Jay McCann Sawyer MD"
          }
        ]
      },
      "request": {
        "method": "PUT",
        "url": "http://localhost:8080/fhir/baseDstu2/Observation/Observation-54"
      }
    },
    {
      "fullUrl": "http://localhost:8080/fhir/baseDstu2/CarePlan/CarePlan-55",
      "resource": {
        "resourceType": "CarePlan",
        "id": "CarePlan-55",
        "extension": [
          {
            "url": "http://mihin.org/fhir/templateId",
            "valueString": "2.16.840.1.113883.10.20.22.4.39"
          },
          {
            "url": "http://mihin.org/fhir/templateId",
            "valueString": "2.16.840.1.113883.10.20.24.3.31"
          }
        ],
        "subject": {
          "reference": "Patient/Patient-12217",
          "display": "1 N  N GP Adult Jr"
        },
        "status": "completed",
        "period": {
          "start": "2015-09-11T08:10:00-04:00",
          "end": "2015-09-11T08:10:00-04:00"
        },
        "author": [
          {
            "reference": "Practitioner/Practitioner-12208",
            "display": "Jay McCann Sawyer MD"
          }
        ],
        "category": [
          {
            "coding": [
              {
                "system": "urn:oid:2.16.840.1.113883.6.96",
                "code": "386464006"
              }
            ],
            "text": "Intervention, Order: Above Normal Follow Up"
          }
        ],
        "description": "Intervention, Order: Above Normal Follow Up",
        "activity": [
          {
            "detail": {
              "reasonCode": [
                {
                  "coding": [
                    {
                      "system": "urn:oid:2.16.840.1.113883.6.96",
                      "code": "183932001"
                    }
                  ]
                }
              ],
              "prohibited": false
            }
          }
        ]
      },
      "request": {
        "method": "PUT",
        "url": "http://localhost:8080/fhir/baseDstu2/CarePlan/CarePlan-55"
      }
    },
    {
      "fullUrl": "http://localhost:8080/fhir/baseDstu2/CarePlan/CarePlan-56",
      "resource": {
        "resourceType": "CarePlan",
        "id": "CarePlan-56",
        "extension": [
          {
            "url": "http://mihin.org/fhir/templateId",
            "valueString": "2.16.840.1.113883.10.20.22.4.39"
          },
          {
            "url": "http://mihin.org/fhir/templateId",
            "valueString": "2.16.840.1.113883.10.20.24.3.31"
          }
        ],
        "subject": {
          "reference": "Patient/Patient-12217",
          "display": "1 N  N GP Adult Jr"
        },
        "status": "completed",
        "period": {
          "start": "2015-09-11T08:10:00-04:00",
          "end": "2015-09-11T08:10:00-04:00"
        },
        "author": [
          {
            "reference": "Practitioner/Practitioner-12208",
            "display": "Jay McCann Sawyer MD"
          }
        ],
        "category": [
          {
            "coding": [
              {
                "system": "urn:oid:2.16.840.1.113883.6.96",
                "code": "103699006"
              }
            ],
            "text": "Intervention, Order: Referrals Where Weight Assessment May Occur"
          }
        ],
        "description": "Intervention, Order: Referrals Where Weight Assessment May Occur",
        "activity": [
          {
            "detail": {
              "reasonCode": [
                {
                  "coding": [
                    {
                      "system": "urn:oid:2.16.840.1.113883.6.96",
                      "code": "183932001"
                    }
                  ]
                }
              ],
              "prohibited": false
            }
          }
        ]
      },
      "request": {
        "method": "PUT",
        "url": "http://localhost:8080/fhir/baseDstu2/CarePlan/CarePlan-56"
      }
    },
    {
      "fullUrl": "http://localhost:8080/fhir/baseDstu2/MedicationOrder/MedicationOrder-57",
      "resource": {
        "resourceType": "MedicationOrder",
        "id": "MedicationOrder-57",
        "extension": [
          {
            "url": "http://mihin.org/fhir/templateId",
            "valueString": "2.16.840.1.113883.10.20.22.4.42"
          },
          {
            "url": "http://mihin.org/fhir/templateId",
            "valueString": "2.16.840.1.113883.10.20.24.3.47"
          }
        ],
        "identifier": [
          {
            "system": "http://hl7.org/fhir/identifier",
            "value": "1.3.6.1.4.1.115:579f4eb5aeac500a550c5b3b"
          }
        ],
        "status": "completed",
        "medicationReference": {
          "reference": "http://example.org/fhir/Medication/example",
          "display": "example medication"
        },
        "patient": {
          "reference": "Patient/Patient-12217",
          "display": "1 N  N GP Adult Jr"
        },
        "prescriber": {
          "reference": "Practitioner/Practitioner-12208",
          "display": "Jay McCann Sawyer MD"
        }
      },
      "request": {
        "method": "PUT",
        "url": "http://localhost:8080/fhir/baseDstu2/MedicationOrder/MedicationOrder-57"
      }
    },
    {
      "fullUrl": "http://localhost:8080/fhir/baseDstu2/CarePlan/CarePlan-58",
      "resource": {
        "resourceType": "CarePlan",
        "id": "CarePlan-58",
        "extension": [
          {
            "url": "http://mihin.org/fhir/templateId",
            "valueString": "2.16.840.1.113883.10.20.22.4.39"
          },
          {
            "url": "http://mihin.org/fhir/templateId",
            "valueString": "2.16.840.1.113883.10.20.24.3.31"
          }
        ],
        "subject": {
          "reference": "Patient/Patient-12217",
          "display": "1 N  N GP Adult Jr"
        },
        "status": "completed",
        "period": {
          "start": "2015-09-11T08:00:00-04:00",
          "end": "2015-09-11T08:00:00-04:00"
        },
        "author": [
          {
            "reference": "Practitioner/Practitioner-12208",
            "display": "Jay McCann Sawyer MD"
          }
        ],
        "category": [
          {
            "coding": [
              {
                "system": "urn:oid:2.16.840.1.113883.6.96",
                "code": "304549008"
              }
            ],
            "text": "Intervention, Order: Physical Activity Recommendation"
          }
        ],
        "description": "Intervention, Order: Physical Activity Recommendation"
      },
      "request": {
        "method": "PUT",
        "url": "http://localhost:8080/fhir/baseDstu2/CarePlan/CarePlan-58"
      }
    },
    {
      "fullUrl": "http://localhost:8080/fhir/baseDstu2/CarePlan/CarePlan-59",
      "resource": {
        "resourceType": "CarePlan",
        "id": "CarePlan-59",
        "extension": [
          {
            "url": "http://mihin.org/fhir/templateId",
            "valueString": "2.16.840.1.113883.10.20.22.4.39"
          },
          {
            "url": "http://mihin.org/fhir/templateId",
            "valueString": "2.16.840.1.113883.10.20.24.3.31"
          }
        ],
        "subject": {
          "reference": "Patient/Patient-12217",
          "display": "1 N  N GP Adult Jr"
        },
        "status": "completed",
        "period": {
          "start": "2015-09-11T08:00:00-04:00",
          "end": "2015-09-11T08:00:00-04:00"
        },
        "author": [
          {
            "reference": "Practitioner/Practitioner-12208",
            "display": "Jay McCann Sawyer MD"
          }
        ],
        "category": [
          {
            "coding": [
              {
                "system": "urn:oid:2.16.840.1.113883.6.285",
                "code": "S9449"
              }
            ],
            "text": "Intervention, Order: Weight Reduction Recommended"
          }
        ],
        "description": "Intervention, Order: Weight Reduction Recommended"
      },
      "request": {
        "method": "PUT",
        "url": "http://localhost:8080/fhir/baseDstu2/CarePlan/CarePlan-59"
      }
    },
    {
      "fullUrl": "http://localhost:8080/fhir/baseDstu2/CarePlan/CarePlan-60",
      "resource": {
        "resourceType": "CarePlan",
        "id": "CarePlan-60",
        "extension": [
          {
            "url": "http://mihin.org/fhir/templateId",
            "valueString": "2.16.840.1.113883.10.20.22.4.39"
          },
          {
            "url": "http://mihin.org/fhir/templateId",
            "valueString": "2.16.840.1.113883.10.20.24.3.31"
          }
        ],
        "subject": {
          "reference": "Patient/Patient-12217",
          "display": "1 N  N GP Adult Jr"
        },
        "status": "completed",
        "period": {
          "start": "2015-09-11T08:15:00-04:00",
          "end": "2015-09-11T08:15:00-04:00"
        },
        "author": [
          {
            "reference": "Practitioner/Practitioner-12208",
            "display": "Jay McCann Sawyer MD"
          }
        ],
        "category": [
          {
            "coding": [
              {
                "system": "urn:oid:2.16.840.1.113883.6.96",
                "code": "308470006"
              }
            ],
            "text": "Intervention, Order: Referral To Alternative Provider / Primary Care Provider"
          }
        ],
        "description": "Intervention, Order: Referral To Alternative Provider / Primary Care Provider"
      },
      "request": {
        "method": "PUT",
        "url": "http://localhost:8080/fhir/baseDstu2/CarePlan/CarePlan-60"
      }
    },
    {
      "fullUrl": "http://localhost:8080/fhir/baseDstu2/Observation/Observation-61",
      "resource": {
        "resourceType": "Observation",
        "id": "Observation-61",
        "extension": [
          {
            "url": "http://mihin.org/fhir/templateId",
            "valueString": "2.16.840.1.113883.10.20.22.4.13"
          },
          {
            "url": "http://mihin.org/fhir/templateId",
            "valueString": "2.16.840.1.113883.10.20.24.3.59"
          }
        ],
        "identifier": [
          {
            "system": "http://hl7.org/fhir/identifier",
            "value": "1.3.6.1.4.1.115:579f4eb5aeac500a550c5b47"
          }
        ],
        "status": "final",
        "code": {
          "coding": [
            {
              "system": "urn:oid:2.16.840.1.113883.6.1",
              "code": "39156-5"
            }
          ],
          "text": "Physical Exam, Performed: Bmi Loinc Value"
        },
        "subject": {
          "reference": "Patient/Patient-12217",
          "display": "1 N  N GP Adult Jr"
        },
        "issued": "2015-09-11T08:00:00-04:00",
        "performer": [
          {
            "reference": "Practitioner/Practitioner-12208",
            "display": "Jay McCann Sawyer MD"
          }
        ]
      },
      "request": {
        "method": "PUT",
        "url": "http://localhost:8080/fhir/baseDstu2/Observation/Observation-61"
      }
    },
    {
      "fullUrl": "http://localhost:8080/fhir/baseDstu2/Observation/Observation-62",
      "resource": {
        "resourceType": "Observation",
        "id": "Observation-62",
        "extension": [
          {
            "url": "http://mihin.org/fhir/templateId",
            "valueString": "2.16.840.1.113883.10.20.22.4.13"
          },
          {
            "url": "http://mihin.org/fhir/templateId",
            "valueString": "2.16.840.1.113883.10.20.24.3.59"
          }
        ],
        "identifier": [
          {
            "system": "http://hl7.org/fhir/identifier",
            "value": "1.3.6.1.4.1.115:579f4eb5aeac500a550c5b3c"
          }
        ],
        "status": "final",
        "code": {
          "coding": [
            {
              "system": "urn:oid:2.16.840.1.113883.6.1",
              "code": "8480-6"
            }
          ],
          "text": "Physical Exam, Performed: Systolic Blood Pressure"
        },
        "subject": {
          "reference": "Patient/Patient-12217",
          "display": "1 N  N GP Adult Jr"
        },
        "issued": "2015-07-09T08:00:00-04:00",
        "performer": [
          {
            "reference": "Practitioner/Practitioner-12208",
            "display": "Jay McCann Sawyer MD"
          }
        ]
      },
      "request": {
        "method": "PUT",
        "url": "http://localhost:8080/fhir/baseDstu2/Observation/Observation-62"
      }
    },
    {
      "fullUrl": "http://localhost:8080/fhir/baseDstu2/Observation/Observation-63",
      "resource": {
        "resourceType": "Observation",
        "id": "Observation-63",
        "extension": [
          {
            "url": "http://mihin.org/fhir/templateId",
            "valueString": "2.16.840.1.113883.10.20.22.4.13"
          },
          {
            "url": "http://mihin.org/fhir/templateId",
            "valueString": "2.16.840.1.113883.10.20.24.3.59"
          }
        ],
        "identifier": [
          {
            "system": "http://hl7.org/fhir/identifier",
            "value": "1.3.6.1.4.1.115:579f4eb5aeac500a550c5b42"
          }
        ],
        "status": "final",
        "code": {
          "coding": [
            {
              "system": "urn:oid:2.16.840.1.113883.6.1",
              "code": "8480-6"
            }
          ],
          "text": "Physical Exam, Performed: Systolic Blood Pressure"
        },
        "subject": {
          "reference": "Patient/Patient-12217",
          "display": "1 N  N GP Adult Jr"
        },
        "issued": "2015-09-11T08:00:00-04:00",
        "performer": [
          {
            "reference": "Practitioner/Practitioner-12208",
            "display": "Jay McCann Sawyer MD"
          }
        ]
      },
      "request": {
        "method": "PUT",
        "url": "http://localhost:8080/fhir/baseDstu2/Observation/Observation-63"
      }
    },
    {
      "fullUrl": "http://localhost:8080/fhir/baseDstu2/Observation/Observation-64",
      "resource": {
        "resourceType": "Observation",
        "id": "Observation-64",
        "extension": [
          {
            "url": "http://mihin.org/fhir/templateId",
            "valueString": "2.16.840.1.113883.10.20.22.4.13"
          },
          {
            "url": "http://mihin.org/fhir/templateId",
            "valueString": "2.16.840.1.113883.10.20.24.3.59"
          }
        ],
        "identifier": [
          {
            "system": "http://hl7.org/fhir/identifier",
            "value": "1.3.6.1.4.1.115:579f4eb5aeac500a550c5b3e"
          }
        ],
        "status": "final",
        "code": {
          "coding": [
            {
              "system": "urn:oid:2.16.840.1.113883.6.1",
              "code": "8462-4"
            }
          ],
          "text": "Physical Exam, Performed: Diastolic Blood Pressure"
        },
        "subject": {
          "reference": "Patient/Patient-12217",
          "display": "1 N  N GP Adult Jr"
        },
        "issued": "2015-07-09T08:00:00-04:00",
        "performer": [
          {
            "reference": "Practitioner/Practitioner-12208",
            "display": "Jay McCann Sawyer MD"
          }
        ]
      },
      "request": {
        "method": "PUT",
        "url": "http://localhost:8080/fhir/baseDstu2/Observation/Observation-64"
      }
    },
    {
      "fullUrl": "http://localhost:8080/fhir/baseDstu2/Observation/Observation-65",
      "resource": {
        "resourceType": "Observation",
        "id": "Observation-65",
        "extension": [
          {
            "url": "http://mihin.org/fhir/templateId",
            "valueString": "2.16.840.1.113883.10.20.22.4.13"
          },
          {
            "url": "http://mihin.org/fhir/templateId",
            "valueString": "2.16.840.1.113883.10.20.24.3.59"
          }
        ],
        "identifier": [
          {
            "system": "http://hl7.org/fhir/identifier",
            "value": "1.3.6.1.4.1.115:579f4eb5aeac500a550c5b40"
          }
        ],
        "status": "final",
        "code": {
          "coding": [
            {
              "system": "urn:oid:2.16.840.1.113883.6.1",
              "code": "8462-4"
            }
          ],
          "text": "Physical Exam, Performed: Diastolic Blood Pressure"
        },
        "subject": {
          "reference": "Patient/Patient-12217",
          "display": "1 N  N GP Adult Jr"
        },
        "issued": "2015-09-11T08:00:00-04:00",
        "performer": [
          {
            "reference": "Practitioner/Practitioner-12208",
            "display": "Jay McCann Sawyer MD"
          }
        ]
      },
      "request": {
        "method": "PUT",
        "url": "http://localhost:8080/fhir/baseDstu2/Observation/Observation-65"
      }
    },
    {
      "fullUrl": "http://localhost:8080/fhir/baseDstu2/CarePlan/CarePlan-66",
      "resource": {
        "resourceType": "CarePlan",
        "id": "CarePlan-66",
        "extension": [
          {
            "url": "http://mihin.org/fhir/templateId",
            "valueString": "2.16.840.1.113883.10.20.22.4.39"
          },
          {
            "url": "http://mihin.org/fhir/templateId",
            "valueString": "2.16.840.1.113883.10.20.24.3.31"
          }
        ],
        "subject": {
          "reference": "Patient/Patient-12217",
          "display": "1 N  N GP Adult Jr"
        },
        "status": "completed",
        "period": {
          "start": "2015-09-11T08:00:00-04:00",
          "end": "2015-09-11T08:00:00-04:00"
        },
        "author": [
          {
            "reference": "Practitioner/Practitioner-12208",
            "display": "Jay McCann Sawyer MD"
          }
        ],
        "category": [
          {
            "coding": [
              {
                "system": "urn:oid:2.16.840.1.113883.6.96",
                "code": "39155009"
              }
            ],
            "text": "Intervention, Order: Lifestyle Recommendation"
          }
        ],
        "description": "Intervention, Order: Lifestyle Recommendation"
      },
      "request": {
        "method": "PUT",
        "url": "http://localhost:8080/fhir/baseDstu2/CarePlan/CarePlan-66"
      }
    },
    {
      "fullUrl": "http://localhost:8080/fhir/baseDstu2/CarePlan/CarePlan-67",
      "resource": {
        "resourceType": "CarePlan",
        "id": "CarePlan-67",
        "extension": [
          {
            "url": "http://mihin.org/fhir/templateId",
            "valueString": "2.16.840.1.113883.10.20.22.4.39"
          },
          {
            "url": "http://mihin.org/fhir/templateId",
            "valueString": "2.16.840.1.113883.10.20.24.3.31"
          }
        ],
        "subject": {
          "reference": "Patient/Patient-12217",
          "display": "1 N  N GP Adult Jr"
        },
        "status": "completed",
        "period": {
          "start": "2015-09-11T08:00:00-04:00",
          "end": "2015-09-11T08:00:00-04:00"
        },
        "author": [
          {
            "reference": "Practitioner/Practitioner-12208",
            "display": "Jay McCann Sawyer MD"
          }
        ],
        "category": [
          {
            "coding": [
              {
                "system": "urn:oid:2.16.840.1.113883.6.96",
                "code": "413473000"
              }
            ],
            "text": "Intervention, Order: Moderation Of Etoh Consumption Recommendation"
          }
        ],
        "description": "Intervention, Order: Moderation Of Etoh Consumption Recommendation"
      },
      "request": {
        "method": "PUT",
        "url": "http://localhost:8080/fhir/baseDstu2/CarePlan/CarePlan-67"
      }
    }
  ]
}