{
  "resourceType": "Bundle",
  "id": "Mabel-Haynes-James-6557-Encounter-512",
  "type": "transaction",
  "entry": [
    {
      "fullUrl": "http://localhost:8080/cqf-ruler/baseDstu3/Encounter/Encounter-512",
      "resource": {
        "resourceType": "Encounter",
        "id": "Encounter-512",
        "status": "finished",
        "class": {
          "system": "http://hl7.org/fhir/encounter-class",
          "code": "outpatient",
          "display": "Inpatient"
        },
        "subject": {
          "reference": "Patient/Patient-6557",
          "display": "Mabel Haynes James"
        },
        "participant": [
          {
            "period": {
              "start": "1992-08-28T00:00:00-04:00",
              "end": "1992-08-28T00:00:00-04:00"
            },
            "individual": {
              "reference": "Practitioner/Practitioner-2534",
              "display": "Pearl Rita Dawson MD"
            }
          }
        ],
        "period": {
          "start": "1992-08-28T00:00:00-04:00",
          "end": "1992-08-28T00:00:00-04:00"
        },
        "location": [
          {
            "location": {
              "reference": "Location/Location-1101",
              "display": "McKinley Health Center"
            }
          }
        ],
        "serviceProvider": {
          "reference": "Organization/Organization-1101",
          "display": "McKinley Health Center"
        }
      },
      "request": {
        "method": "PUT",
        "url": "http://localhost:8080/cqf-ruler/baseDstu3/Encounter/Encounter-512"
      }
    },
    {
      "fullUrl": "http://localhost:8080/cqf-ruler/baseDstu3/Immunization/Immunization-68285",
      "resource": {
        "resourceType": "Immunization",
        "id": "Immunization-68285",
        "status": "completed",
        "notGiven": false,
        "vaccineCode": {
          "coding": [
            {
              "system": "http://hl7.org/fhir/sid/cvx",
              "code": "140",
              "display": "Influenza, seasonal, injectable, preservative free"
            }
          ]
        },
        "patient": {
          "reference": "Patient/Patient-6557",
          "display": "Mabel Haynes James"
        },
        "date": "1992-08-28T00:00:00-04:00",
        "primarySource": true,
        "location": {
          "reference": "Location/Location-1101",
          "display": "McKinley Health Center"
        },
        "practitioner": [
          {
            "actor": {
              "reference": "Practitioner/Practitioner-2534",
              "display": "Pearl Rita Dawson MD"
            }
          }
        ]
      },
      "request": {
        "method": "PUT",
        "url": "http://localhost:8080/cqf-ruler/baseDstu3/Immunization/Immunization-68285"
      }
    },
    {
      "fullUrl": "http://localhost:8080/cqf-ruler/baseDstu3/Observation/Observation-88145",
      "resource": {
        "resourceType": "Observation",
        "id": "Observation-88145",
        "status": "final",
        "code": {
          "coding": [
            {
              "system": "http://loinc.org",
              "code": "8480-6",
              "display": "Systolic blood pressure"
            }
          ]
        },
        "subject": {
          "reference": "Patient/Patient-6557",
          "display": "Mabel Haynes James"
        },
        "context": {
          "reference": "Encounter/Encounter-512",
          "display": "Wellness Visit"
        },
        "effectivePeriod": {
          "start": "1992-08-28T00:00:00-04:00",
          "end": "1992-08-28T00:00:00-04:00"
        },
        "performer": [
          {
            "reference": "Practitioner/Practitioner-2534",
            "display": "Pearl Rita Dawson MD"
          }
        ],
        "valueQuantity": {
          "value": 135.07844626138103,
          "unit": "mmHg"
        }
      },
      "request": {
        "method": "PUT",
        "url": "http://localhost:8080/cqf-ruler/baseDstu3/Observation/Observation-88145"
      }
    },
    {
      "fullUrl": "http://localhost:8080/cqf-ruler/baseDstu3/Observation/Observation-88146",
      "resource": {
        "resourceType": "Observation",
        "id": "Observation-88146",
        "status": "final",
        "code": {
          "coding": [
            {
              "system": "http://loinc.org",
              "code": "8462-4",
              "display": "Diastolic blood pressure"
            }
          ]
        },
        "subject": {
          "reference": "Patient/Patient-6557",
          "display": "Mabel Haynes James"
        },
        "context": {
          "reference": "Encounter/Encounter-512",
          "display": "Wellness Visit"
        },
        "effectivePeriod": {
          "start": "1992-08-28T00:00:00-04:00",
          "end": "1992-08-28T00:00:00-04:00"
        },
        "performer": [
          {
            "reference": "Practitioner/Practitioner-2534",
            "display": "Pearl Rita Dawson MD"
          }
        ],
        "valueQuantity": {
          "value": 80.55990742336789,
          "unit": "mmHg"
        }
      },
      "request": {
        "method": "PUT",
        "url": "http://localhost:8080/cqf-ruler/baseDstu3/Observation/Observation-88146"
      }
    },
    {
      "fullUrl": "http://localhost:8080/cqf-ruler/baseDstu3/Observation/Observation-88147",
      "resource": {
        "resourceType": "Observation",
        "id": "Observation-88147",
        "status": "final",
        "code": {
          "coding": [
            {
              "system": "http://loinc.org",
              "code": "8302-2",
              "display": "Body Height"
            }
          ]
        },
        "subject": {
          "reference": "Patient/Patient-6557",
          "display": "Mabel Haynes James"
        },
        "context": {
          "reference": "Encounter/Encounter-512",
          "display": "Wellness Visit"
        },
        "effectivePeriod": {
          "start": "1992-08-28T00:00:00-04:00",
          "end": "1992-08-28T00:00:00-04:00"
        },
        "performer": [
          {
            "reference": "Practitioner/Practitioner-2534",
            "display": "Pearl Rita Dawson MD"
          }
        ],
        "valueQuantity": {
          "value": 154.9,
          "unit": "cm"
        }
      },
      "request": {
        "method": "PUT",
        "url": "http://localhost:8080/cqf-ruler/baseDstu3/Observation/Observation-88147"
      }
    },
    {
      "fullUrl": "http://localhost:8080/cqf-ruler/baseDstu3/Observation/Observation-88148",
      "resource": {
        "resourceType": "Observation",
        "id": "Observation-88148",
        "status": "final",
        "code": {
          "coding": [
            {
              "system": "http://loinc.org",
              "code": "29463-7",
              "display": "Body Weight"
            }
          ]
        },
        "subject": {
          "reference": "Patient/Patient-6557",
          "display": "Mabel Haynes James"
        },
        "context": {
          "reference": "Encounter/Encounter-512",
          "display": "Wellness Visit"
        },
        "effectivePeriod": {
          "start": "1992-08-28T00:00:00-04:00",
          "end": "1992-08-28T00:00:00-04:00"
        },
        "performer": [
          {
            "reference": "Practitioner/Practitioner-2534",
            "display": "Pearl Rita Dawson MD"
          }
        ],
        "valueQuantity": {
          "value": 64.8,
          "unit": "kg"
        }
      },
      "request": {
        "method": "PUT",
        "url": "http://localhost:8080/cqf-ruler/baseDstu3/Observation/Observation-88148"
      }
    },
    {
      "fullUrl": "http://localhost:8080/cqf-ruler/baseDstu3/Observation/Observation-88149",
      "resource": {
        "resourceType": "Observation",
        "id": "Observation-88149",
        "status": "final",
        "code": {
          "coding": [
            {
              "system": "http://loinc.org",
              "code": "39156-5",
              "display": "Body Mass Index"
            }
          ]
        },
        "subject": {
          "reference": "Patient/Patient-6557",
          "display": "Mabel Haynes James"
        },
        "context": {
          "reference": "Encounter/Encounter-512",
          "display": "Wellness Visit"
        },
        "effectivePeriod": {
          "start": "1992-08-28T00:00:00-04:00",
          "end": "1992-08-28T00:00:00-04:00"
        },
        "performer": [
          {
            "reference": "Practitioner/Practitioner-2534",
            "display": "Pearl Rita Dawson MD"
          }
        ],
        "valueQuantity": {
          "value": 27.006740432299555,
          "unit": "kg/m2"
        }
      },
      "request": {
        "method": "PUT",
        "url": "http://localhost:8080/cqf-ruler/baseDstu3/Observation/Observation-88149"
      }
    },
    {
      "fullUrl": "http://localhost:8080/cqf-ruler/baseDstu3/Observation/Observation-88152",
      "resource": {
        "resourceType": "Observation",
        "id": "Observation-88152",
        "status": "final",
        "category": [
          {
            "coding": [
              {
                "system": "http://hl7.org/fhir/observation-category",
                "code": "vital-signs",
                "display": "vital-signs"
              }
            ]
          }
        ],
        "code": {
          "coding": [
            {
              "system": "http://loinc.org",
              "code": "55284-4",
              "display": "Blood Pressure"
            }
          ]
        },
        "subject": {
          "reference": "Patient/Patient-6557",
          "display": "Mabel Haynes James"
        },
        "context": {
          "reference": "Encounter/Encounter-512",
          "display": "Wellness Visit"
        },
        "effectivePeriod": {
          "start": "1992-08-28T00:00:00-04:00",
          "end": "1992-08-28T00:00:00-04:00"
        },
        "valueQuantity": {
          "value": 80.55990742336789,
          "unit": "mmHg"
        },
        "component": [
          {
            "code": {
              "coding": [
                {
                  "system": "http://loinc.org",
                  "code": "8480-6",
                  "display": "Systolic Blood Pressure"
                }
              ]
            }
          },
          {
            "code": {
              "coding": [
                {
                  "system": "http://loinc.org",
                  "code": "8462-4",
                  "display": "Diastolic Blood Pressure"
                }
              ]
            }
          }
        ]
      },
      "request": {
        "method": "PUT",
        "url": "http://localhost:8080/cqf-ruler/baseDstu3/Observation/Observation-88152"
      }
    },
    {
      "fullUrl": "http://localhost:8080/cqf-ruler/baseDstu3/Observation/Observation-88154",
      "resource": {
        "resourceType": "Observation",
        "id": "Observation-88154",
        "status": "final",
        "code": {
          "coding": [
            {
              "system": "http://loinc.org",
              "code": "8302-2",
              "display": "Height"
            }
          ]
        },
        "subject": {
          "reference": "Patient/Patient-6557",
          "display": "Mabel Haynes James"
        },
        "context": {
          "reference": "Encounter/Encounter-512",
          "display": "Wellness Visit"
        },
        "effectiveDateTime": "1992-08-28T00:00:00-04:00",
        "performer": [
          {
            "reference": "Practitioner/Practitioner-2534",
            "display": "Pearl Rita Dawson MD"
          }
        ],
        "valueQuantity": {
          "value": 154.9,
          "unit": "cm"
        }
      },
      "request": {
        "method": "PUT",
        "url": "http://localhost:8080/cqf-ruler/baseDstu3/Observation/Observation-88154"
      }
    },
    {
      "fullUrl": "http://localhost:8080/cqf-ruler/baseDstu3/Observation/Observation-88155",
      "resource": {
        "resourceType": "Observation",
        "id": "Observation-88155",
        "status": "final",
        "code": {
          "coding": [
            {
              "system": "http://loinc.org",
              "code": "29463-7",
              "display": "Weight"
            }
          ]
        },
        "subject": {
          "reference": "Patient/Patient-6557",
          "display": "Mabel Haynes James"
        },
        "context": {
          "reference": "Encounter/Encounter-512",
          "display": "Wellness Visit"
        },
        "effectiveDateTime": "1992-08-28T00:00:00-04:00",
        "performer": [
          {
            "reference": "Practitioner/Practitioner-2534",
            "display": "Pearl Rita Dawson MD"
          }
        ],
        "valueQuantity": {
          "value": 64.8,
          "unit": "kg"
        }
      },
      "request": {
        "method": "PUT",
        "url": "http://localhost:8080/cqf-ruler/baseDstu3/Observation/Observation-88155"
      }
    },
    {
      "fullUrl": "http://localhost:8080/cqf-ruler/baseDstu3/Observation/Observation-88156",
      "resource": {
        "resourceType": "Observation",
        "id": "Observation-88156",
        "status": "final",
        "code": {
          "coding": [
            {
              "system": "http://loinc.org",
              "code": "39156-5",
              "display": "BMI"
            }
          ]
        },
        "subject": {
          "reference": "Patient/Patient-6557",
          "display": "Mabel Haynes James"
        },
        "context": {
          "reference": "Encounter/Encounter-512",
          "display": "Wellness Visit"
        },
        "effectiveDateTime": "1992-08-28T00:00:00-04:00",
        "performer": [
          {
            "reference": "Practitioner/Practitioner-2534",
            "display": "Pearl Rita Dawson MD"
          }
        ],
        "valueQuantity": {
          "value": 27.006740432299555,
          "unit": "kg/m2"
        }
      },
      "request": {
        "method": "PUT",
        "url": "http://localhost:8080/cqf-ruler/baseDstu3/Observation/Observation-88156"
      }
    },
    {
      "fullUrl": "http://localhost:8080/cqf-ruler/baseDstu3/Observation/Observation-88157",
      "resource": {
        "resourceType": "Observation",
        "id": "Observation-88157",
        "status": "final",
        "code": {
          "coding": [
            {
              "system": "http://loinc.org",
              "code": "8310-5",
              "display": "Temperature"
            }
          ]
        },
        "subject": {
          "reference": "Patient/Patient-6557",
          "display": "Mabel Haynes James"
        },
        "context": {
          "reference": "Encounter/Encounter-512",
          "display": "Wellness Visit"
        },
        "effectiveDateTime": "1992-08-28T00:00:00-04:00",
        "performer": [
          {
            "reference": "Practitioner/Practitioner-2534",
            "display": "Pearl Rita Dawson MD"
          }
        ],
        "valueQuantity": {
          "value": 37.0,
          "unit": "C"
        }
      },
      "request": {
        "method": "PUT",
        "url": "http://localhost:8080/cqf-ruler/baseDstu3/Observation/Observation-88157"
      }
    },
    {
      "fullUrl": "http://localhost:8080/cqf-ruler/baseDstu3/Observation/Observation-88158",
      "resource": {
        "resourceType": "Observation",
        "id": "Observation-88158",
        "status": "final",
        "code": {
          "coding": [
            {
              "system": "http://loinc.org",
              "code": "8459-0",
              "display": "Systolic Blood Pressure"
            }
          ]
        },
        "subject": {
          "reference": "Patient/Patient-6557",
          "display": "Mabel Haynes James"
        },
        "context": {
          "reference": "Encounter/Encounter-512",
          "display": "Wellness Visit"
        },
        "effectiveDateTime": "1992-08-28T00:00:00-04:00",
        "performer": [
          {
            "reference": "Practitioner/Practitioner-2534",
            "display": "Pearl Rita Dawson MD"
          }
        ],
        "valueQuantity": {
          "value": 135.07844626138103,
          "unit": "mmHg"
        }
      },
      "request": {
        "method": "PUT",
        "url": "http://localhost:8080/cqf-ruler/baseDstu3/Observation/Observation-88158"
      }
    },
    {
      "fullUrl": "http://localhost:8080/cqf-ruler/baseDstu3/Observation/Observation-88159",
      "resource": {
        "resourceType": "Observation",
        "id": "Observation-88159",
        "status": "final",
        "code": {
          "coding": [
            {
              "system": "http://loinc.org",
              "code": "8453-3",
              "display": "Diastolic Blood Pressure"
            }
          ]
        },
        "subject": {
          "reference": "Patient/Patient-6557",
          "display": "Mabel Haynes James"
        },
        "context": {
          "reference": "Encounter/Encounter-512",
          "display": "Wellness Visit"
        },
        "effectiveDateTime": "1992-08-28T00:00:00-04:00",
        "performer": [
          {
            "reference": "Practitioner/Practitioner-2534",
            "display": "Pearl Rita Dawson MD"
          }
        ],
        "valueQuantity": {
          "value": 80.55990742336789,
          "unit": "mmHg"
        }
      },
      "request": {
        "method": "PUT",
        "url": "http://localhost:8080/cqf-ruler/baseDstu3/Observation/Observation-88159"
      }
    },
    {
      "fullUrl": "http://localhost:8080/cqf-ruler/baseDstu3/DiagnosticReport/DiagnosticReport-88153",
      "resource": {
        "resourceType": "DiagnosticReport",
        "id": "DiagnosticReport-88153",
        "status": "final",
        "code": {
          "coding": [
            {
              "system": "http://loinc.org",
              "code": "8716-3",
              "display": "Vital Signs Panel"
            }
          ]
        },
        "subject": {
          "reference": "Patient/Patient-6557",
          "display": "Mabel Haynes James"
        },
        "context": {
          "reference": "Encounter/Encounter-512",
          "display": "Wellness Visit"
        },
        "effectivePeriod": {
          "start": "1992-08-28T00:00:00-04:00",
          "end": "1992-08-28T00:00:00-04:00"
        },
        "issued": "1992-08-28T00:00:00.000-04:00",
        "result": [
          {
            "reference": "Observation/Observation-88154",
            "display": "Height"
          },
          {
            "reference": "Observation/Observation-88155",
            "display": "Weight"
          },
          {
            "reference": "Observation/Observation-88156",
            "display": "BMI"
          },
          {
            "reference": "Observation/Observation-88157",
            "display": "Temperature"
          },
          {
            "reference": "Observation/Observation-88158",
            "display": "Systolic Blood Pressure"
          },
          {
            "reference": "Observation/Observation-88159",
            "display": "Diastolic Blood Pressure"
          }
        ]
      },
      "request": {
        "method": "PUT",
        "url": "http://localhost:8080/cqf-ruler/baseDstu3/DiagnosticReport/DiagnosticReport-88153"
      }
    }
  ]
}