{
  "resourceType": "Bundle",
  "id": "Glen-Cochran-Estrada-6494-Encounter-644",
  "type": "transaction",
  "entry": [
    {
      "fullUrl": "http://localhost:8080/cqf-ruler/baseDstu3Encounter/Encounter-644",
      "resource": {
        "resourceType": "Encounter",
        "id": "Encounter-644",
        "status": "finished",
        "class": {
          "system": "http://hl7.org/fhir/encounter-class",
          "code": "outpatient",
          "display": "Inpatient"
        },
        "subject": {
          "reference": "Patient/Patient-6494",
          "display": "Glen Cochran Estrada"
        },
        "participant": [
          {
            "period": {
              "start": "1992-12-31T21:00:00-05:00",
              "end": "1992-12-31T21:00:00-05:00"
            },
            "individual": {
              "reference": "Practitioner/Practitioner-2531",
              "display": "Tracy Hampton Boone MD"
            }
          }
        ],
        "period": {
          "start": "1992-12-31T21:00:00-05:00",
          "end": "1992-12-31T21:00:00-05:00"
        },
        "location": [
          {
            "location": {
              "reference": "Location/Location-1104",
              "display": "Bay Area Family Practice"
            }
          }
        ],
        "serviceProvider": {
          "reference": "Organization/Organization-1104",
          "display": "Bay Area Family Practice"
        }
      },
      "request": {
        "method": "PUT",
        "url": "http://localhost:8080/cqf-ruler/baseDstu3Encounter/Encounter-644"
      }
    },
    {
      "fullUrl": "http://localhost:8080/cqf-ruler/baseDstu3Immunization/Immunization-83124",
      "resource": {
        "resourceType": "Immunization",
        "id": "Immunization-83124",
        "status": "completed",
        "notGiven": false,
        "vaccineCode": {
          "coding": [
            {
              "system": "http://hl7.org/fhir/sid/cvx",
              "code": "140",
              "display": "Influenza, seasonal, injectable, preservative free"
            }
          ]
        },
        "patient": {
          "reference": "Patient/Patient-6494",
          "display": "Glen Cochran Estrada"
        },
        "date": "1992-12-31T21:00:00-05:00",
        "primarySource": true,
        "location": {
          "reference": "Location/Location-1104",
          "display": "Bay Area Family Practice"
        },
        "practitioner": [
          {
            "actor": {
              "reference": "Practitioner/Practitioner-2531",
              "display": "Tracy Hampton Boone MD"
            }
          }
        ]
      },
      "request": {
        "method": "PUT",
        "url": "http://localhost:8080/cqf-ruler/baseDstu3Immunization/Immunization-83124"
      }
    },
    {
      "fullUrl": "http://localhost:8080/cqf-ruler/baseDstu3Immunization/Immunization-83125",
      "resource": {
        "resourceType": "Immunization",
        "id": "Immunization-83125",
        "status": "completed",
        "notGiven": false,
        "vaccineCode": {
          "coding": [
            {
              "system": "http://hl7.org/fhir/sid/cvx",
              "code": "83",
              "display": "Hep A, ped/adol, 2 dose"
            }
          ]
        },
        "patient": {
          "reference": "Patient/Patient-6494",
          "display": "Glen Cochran Estrada"
        },
        "date": "1992-12-31T21:00:00-05:00",
        "primarySource": true,
        "location": {
          "reference": "Location/Location-1104",
          "display": "Bay Area Family Practice"
        },
        "practitioner": [
          {
            "actor": {
              "reference": "Practitioner/Practitioner-2531",
              "display": "Tracy Hampton Boone MD"
            }
          }
        ]
      },
      "request": {
        "method": "PUT",
        "url": "http://localhost:8080/cqf-ruler/baseDstu3Immunization/Immunization-83125"
      }
    },
    {
      "fullUrl": "http://localhost:8080/cqf-ruler/baseDstu3Observation/Observation-92958",
      "resource": {
        "resourceType": "Observation",
        "id": "Observation-92958",
        "status": "final",
        "code": {
          "coding": [
            {
              "system": "http://loinc.org",
              "code": "8302-2",
              "display": "Height"
            }
          ]
        },
        "subject": {
          "reference": "Patient/Patient-6494",
          "display": "Glen Cochran Estrada"
        },
        "context": {
          "reference": "Encounter/Encounter-644",
          "display": "Wellness Visit"
        },
        "effectiveDateTime": "1992-12-31T21:00:00-05:00",
        "performer": [
          {
            "reference": "Practitioner/Practitioner-2531",
            "display": "Tracy Hampton Boone MD"
          }
        ],
        "valueQuantity": {
          "value": 98.4,
          "unit": "cm"
        }
      },
      "request": {
        "method": "PUT",
        "url": "http://localhost:8080/cqf-ruler/baseDstu3Observation/Observation-92958"
      }
    },
    {
      "fullUrl": "http://localhost:8080/cqf-ruler/baseDstu3Observation/Observation-92959",
      "resource": {
        "resourceType": "Observation",
        "id": "Observation-92959",
        "status": "final",
        "code": {
          "coding": [
            {
              "system": "http://loinc.org",
              "code": "29463-7",
              "display": "Weight"
            }
          ]
        },
        "subject": {
          "reference": "Patient/Patient-6494",
          "display": "Glen Cochran Estrada"
        },
        "context": {
          "reference": "Encounter/Encounter-644",
          "display": "Wellness Visit"
        },
        "effectiveDateTime": "1992-12-31T21:00:00-05:00",
        "performer": [
          {
            "reference": "Practitioner/Practitioner-2531",
            "display": "Tracy Hampton Boone MD"
          }
        ],
        "valueQuantity": {
          "value": 0.0,
          "unit": "kg"
        }
      },
      "request": {
        "method": "PUT",
        "url": "http://localhost:8080/cqf-ruler/baseDstu3Observation/Observation-92959"
      }
    },
    {
      "fullUrl": "http://localhost:8080/cqf-ruler/baseDstu3Observation/Observation-92960",
      "resource": {
        "resourceType": "Observation",
        "id": "Observation-92960",
        "status": "final",
        "code": {
          "coding": [
            {
              "system": "http://loinc.org",
              "code": "39156-5",
              "display": "BMI"
            }
          ]
        },
        "subject": {
          "reference": "Patient/Patient-6494",
          "display": "Glen Cochran Estrada"
        },
        "context": {
          "reference": "Encounter/Encounter-644",
          "display": "Wellness Visit"
        },
        "effectiveDateTime": "1992-12-31T21:00:00-05:00",
        "performer": [
          {
            "reference": "Practitioner/Practitioner-2531",
            "display": "Tracy Hampton Boone MD"
          }
        ],
        "valueQuantity": {
          "value": 0.0,
          "unit": "kg/m2"
        }
      },
      "request": {
        "method": "PUT",
        "url": "http://localhost:8080/cqf-ruler/baseDstu3Observation/Observation-92960"
      }
    },
    {
      "fullUrl": "http://localhost:8080/cqf-ruler/baseDstu3Observation/Observation-92961",
      "resource": {
        "resourceType": "Observation",
        "id": "Observation-92961",
        "status": "final",
        "code": {
          "coding": [
            {
              "system": "http://loinc.org",
              "code": "8310-5",
              "display": "Temperature"
            }
          ]
        },
        "subject": {
          "reference": "Patient/Patient-6494",
          "display": "Glen Cochran Estrada"
        },
        "context": {
          "reference": "Encounter/Encounter-644",
          "display": "Wellness Visit"
        },
        "effectiveDateTime": "1992-12-31T21:00:00-05:00",
        "performer": [
          {
            "reference": "Practitioner/Practitioner-2531",
            "display": "Tracy Hampton Boone MD"
          }
        ],
        "valueQuantity": {
          "value": 37.0,
          "unit": "C"
        }
      },
      "request": {
        "method": "PUT",
        "url": "http://localhost:8080/cqf-ruler/baseDstu3Observation/Observation-92961"
      }
    },
    {
      "fullUrl": "http://localhost:8080/cqf-ruler/baseDstu3Observation/Observation-92962",
      "resource": {
        "resourceType": "Observation",
        "id": "Observation-92962",
        "status": "final",
        "code": {
          "coding": [
            {
              "system": "http://loinc.org",
              "code": "8459-0",
              "display": "Systolic Blood Pressure"
            }
          ]
        },
        "subject": {
          "reference": "Patient/Patient-6494",
          "display": "Glen Cochran Estrada"
        },
        "context": {
          "reference": "Encounter/Encounter-644",
          "display": "Wellness Visit"
        },
        "effectiveDateTime": "1992-12-31T21:00:00-05:00",
        "performer": [
          {
            "reference": "Practitioner/Practitioner-2531",
            "display": "Tracy Hampton Boone MD"
          }
        ],
        "valueQuantity": {
          "value": 131.48275334104872,
          "unit": "mmHg"
        }
      },
      "request": {
        "method": "PUT",
        "url": "http://localhost:8080/cqf-ruler/baseDstu3Observation/Observation-92962"
      }
    },
    {
      "fullUrl": "http://localhost:8080/cqf-ruler/baseDstu3Observation/Observation-92963",
      "resource": {
        "resourceType": "Observation",
        "id": "Observation-92963",
        "status": "final",
        "code": {
          "coding": [
            {
              "system": "http://loinc.org",
              "code": "8453-3",
              "display": "Diastolic Blood Pressure"
            }
          ]
        },
        "subject": {
          "reference": "Patient/Patient-6494",
          "display": "Glen Cochran Estrada"
        },
        "context": {
          "reference": "Encounter/Encounter-644",
          "display": "Wellness Visit"
        },
        "effectiveDateTime": "1992-12-31T21:00:00-05:00",
        "performer": [
          {
            "reference": "Practitioner/Practitioner-2531",
            "display": "Tracy Hampton Boone MD"
          }
        ],
        "valueQuantity": {
          "value": 72.92331405647441,
          "unit": "mmHg"
        }
      },
      "request": {
        "method": "PUT",
        "url": "http://localhost:8080/cqf-ruler/baseDstu3Observation/Observation-92963"
      }
    },
    {
      "fullUrl": "http://localhost:8080/cqf-ruler/baseDstu3DiagnosticReport/DiagnosticReport-92957",
      "resource": {
        "resourceType": "DiagnosticReport",
        "id": "DiagnosticReport-92957",
        "status": "final",
        "code": {
          "coding": [
            {
              "system": "http://loinc.org",
              "code": "8716-3",
              "display": "Vital Signs Panel"
            }
          ]
        },
        "subject": {
          "reference": "Patient/Patient-6494",
          "display": "Glen Cochran Estrada"
        },
        "context": {
          "reference": "Encounter/Encounter-644",
          "display": "Wellness Visit"
        },
        "effectivePeriod": {
          "start": "1992-12-31T21:00:00-05:00",
          "end": "1992-12-31T21:00:00-05:00"
        },
        "issued": "1992-12-31T21:00:00.000-05:00",
        "result": [
          {
            "reference": "Observation/Observation-92958",
            "display": "Height"
          },
          {
            "reference": "Observation/Observation-92959",
            "display": "Weight"
          },
          {
            "reference": "Observation/Observation-92960",
            "display": "BMI"
          },
          {
            "reference": "Observation/Observation-92961",
            "display": "Temperature"
          },
          {
            "reference": "Observation/Observation-92962",
            "display": "Systolic Blood Pressure"
          },
          {
            "reference": "Observation/Observation-92963",
            "display": "Diastolic Blood Pressure"
          }
        ]
      },
      "request": {
        "method": "PUT",
        "url": "http://localhost:8080/cqf-ruler/baseDstu3DiagnosticReport/DiagnosticReport-92957"
      }
    }
  ]
}