{
  "resourceType": "Bundle",
  "id": "Glen-Cochran-Estrada-6494-Encounter-326",
  "type": "transaction",
  "entry": [
    {
      "fullUrl": "http://localhost:8080/cqf-ruler/baseDstu3/Encounter/Encounter-326",
      "resource": {
        "resourceType": "Encounter",
        "id": "Encounter-326",
        "meta": {
          "profile": [
            "http://hl7.org/fhir/us/hedis/StructureDefinition/hedis-encounter"
          ]
        },
        "status": "finished",
        "class": {
          "system": "http://hl7.org/fhir/encounter-class",
          "code": "outpatient",
          "display": "Outpatient"
        },
        "subject": {
          "reference": "Patient/Patient-6494",
          "display": "Glen Cochran Estrada"
        },
        "participant": [
          {
            "period": {
              "start": "1989-04-23T10:00:00-04:00",
              "end": "1989-04-23T10:00:00-04:00"
            },
            "individual": {
              "reference": "Practitioner/Practitioner-2531",
              "display": "Tracy Hampton Boone MD"
            }
          }
        ],
        "period": {
          "start": "1989-04-23T10:00:00-04:00",
          "end": "1989-04-23T10:00:00-04:00"
        },
        "location": [
          {
            "location": {
              "reference": "Location/Location-1104",
              "display": "Bay Area Family Practice"
            }
          }
        ],
        "serviceProvider": {
          "reference": "Organization/Organization-1104",
          "display": "Bay Area Family Practice"
        }
      },
      "request": {
        "method": "PUT",
        "url": "http://localhost:8080/cqf-ruler/baseDstu3/Encounter/Encounter-326"
      }
    },
    {
      "fullUrl": "http://localhost:8080/cqf-ruler/baseDstu3/Observation/Observation-27163",
      "resource": {
        "resourceType": "Observation",
        "id": "Observation-27163",
        "status": "final",
        "code": {
          "coding": [
            {
              "system": "http://loinc.org",
              "code": "8302-2",
              "display": "Height"
            }
          ]
        },
        "subject": {
          "reference": "Patient/Patient-6494",
          "display": "Glen Cochran Estrada"
        },
        "context": {
          "reference": "Encounter/Encounter-326",
          "display": "Wellness Visit"
        },
        "effectiveDateTime": "1989-04-23T10:00:00-04:00",
        "performer": [
          {
            "reference": "Practitioner/Practitioner-2531",
            "display": "Tracy Hampton Boone MD"
          }
        ],
        "valueQuantity": {
          "value": 50.0,
          "unit": "cm"
        }
      },
      "request": {
        "method": "PUT",
        "url": "http://localhost:8080/cqf-ruler/baseDstu3/Observation/Observation-27163"
      }
    },
    {
      "fullUrl": "http://localhost:8080/cqf-ruler/baseDstu3/Observation/Observation-27164",
      "resource": {
        "resourceType": "Observation",
        "id": "Observation-27164",
        "status": "final",
        "code": {
          "coding": [
            {
              "system": "http://loinc.org",
              "code": "29463-7",
              "display": "Weight"
            }
          ]
        },
        "subject": {
          "reference": "Patient/Patient-6494",
          "display": "Glen Cochran Estrada"
        },
        "context": {
          "reference": "Encounter/Encounter-326",
          "display": "Wellness Visit"
        },
        "effectiveDateTime": "1989-04-23T10:00:00-04:00",
        "performer": [
          {
            "reference": "Practitioner/Practitioner-2531",
            "display": "Tracy Hampton Boone MD"
          }
        ],
        "valueQuantity": {
          "value": 3.9,
          "unit": "kg"
        }
      },
      "request": {
        "method": "PUT",
        "url": "http://localhost:8080/cqf-ruler/baseDstu3/Observation/Observation-27164"
      }
    },
    {
      "fullUrl": "http://localhost:8080/cqf-ruler/baseDstu3/Observation/Observation-27165",
      "resource": {
        "resourceType": "Observation",
        "id": "Observation-27165",
        "status": "final",
        "code": {
          "coding": [
            {
              "system": "http://loinc.org",
              "code": "39156-5",
              "display": "BMI"
            }
          ]
        },
        "subject": {
          "reference": "Patient/Patient-6494",
          "display": "Glen Cochran Estrada"
        },
        "context": {
          "reference": "Encounter/Encounter-326",
          "display": "Wellness Visit"
        },
        "effectiveDateTime": "1989-04-23T10:00:00-04:00",
        "performer": [
          {
            "reference": "Practitioner/Practitioner-2531",
            "display": "Tracy Hampton Boone MD"
          }
        ],
        "valueQuantity": {
          "value": 15.6,
          "unit": "kg/m2"
        }
      },
      "request": {
        "method": "PUT",
        "url": "http://localhost:8080/cqf-ruler/baseDstu3/Observation/Observation-27165"
      }
    },
    {
      "fullUrl": "http://localhost:8080/cqf-ruler/baseDstu3/Observation/Observation-27166",
      "resource": {
        "resourceType": "Observation",
        "id": "Observation-27166",
        "status": "final",
        "code": {
          "coding": [
            {
              "system": "http://loinc.org",
              "code": "8310-5",
              "display": "Temperature"
            }
          ]
        },
        "subject": {
          "reference": "Patient/Patient-6494",
          "display": "Glen Cochran Estrada"
        },
        "context": {
          "reference": "Encounter/Encounter-326",
          "display": "Wellness Visit"
        },
        "effectiveDateTime": "1989-04-23T10:00:00-04:00",
        "performer": [
          {
            "reference": "Practitioner/Practitioner-2531",
            "display": "Tracy Hampton Boone MD"
          }
        ],
        "valueQuantity": {
          "value": 37.0,
          "unit": "C"
        }
      },
      "request": {
        "method": "PUT",
        "url": "http://localhost:8080/cqf-ruler/baseDstu3/Observation/Observation-27166"
      }
    },
    {
      "fullUrl": "http://localhost:8080/cqf-ruler/baseDstu3/Observation/Observation-27167",
      "resource": {
        "resourceType": "Observation",
        "id": "Observation-27167",
        "status": "final",
        "code": {
          "coding": [
            {
              "system": "http://loinc.org",
              "code": "8459-0",
              "display": "Systolic Blood Pressure"
            }
          ]
        },
        "subject": {
          "reference": "Patient/Patient-6494",
          "display": "Glen Cochran Estrada"
        },
        "context": {
          "reference": "Encounter/Encounter-326",
          "display": "Wellness Visit"
        },
        "effectiveDateTime": "1989-04-23T10:00:00-04:00",
        "performer": [
          {
            "reference": "Practitioner/Practitioner-2531",
            "display": "Tracy Hampton Boone MD"
          }
        ],
        "valueQuantity": {
          "value": 150.26511758354442,
          "unit": "mmHg"
        }
      },
      "request": {
        "method": "PUT",
        "url": "http://localhost:8080/cqf-ruler/baseDstu3/Observation/Observation-27167"
      }
    },
    {
      "fullUrl": "http://localhost:8080/cqf-ruler/baseDstu3/Observation/Observation-27168",
      "resource": {
        "resourceType": "Observation",
        "id": "Observation-27168",
        "status": "final",
        "code": {
          "coding": [
            {
              "system": "http://loinc.org",
              "code": "8453-3",
              "display": "Diastolic Blood Pressure"
            }
          ]
        },
        "subject": {
          "reference": "Patient/Patient-6494",
          "display": "Glen Cochran Estrada"
        },
        "context": {
          "reference": "Encounter/Encounter-326",
          "display": "Wellness Visit"
        },
        "effectiveDateTime": "1989-04-23T10:00:00-04:00",
        "performer": [
          {
            "reference": "Practitioner/Practitioner-2531",
            "display": "Tracy Hampton Boone MD"
          }
        ],
        "valueQuantity": {
          "value": 110.19639378103929,
          "unit": "mmHg"
        }
      },
      "request": {
        "method": "PUT",
        "url": "http://localhost:8080/cqf-ruler/baseDstu3/Observation/Observation-27168"
      }
    },
    {
      "fullUrl": "http://localhost:8080/cqf-ruler/baseDstu3/DiagnosticReport/DiagnosticReport-27162",
      "resource": {
        "resourceType": "DiagnosticReport",
        "id": "DiagnosticReport-27162",
        "meta": {
          "profile": [
            "http://hl7.org/fhir/us/hedis/StructureDefinition/hedis-diagnosticreport"
          ]
        },
        "status": "final",
        "category": {
          "coding": [
            {
              "system": "http://hl7.org/fhir/ValueSet/diagnostic-service-sections",
              "code": "LAB",
              "display": "Laboratory"
            }
          ]
        },
        "code": {
          "coding": [
            {
              "system": "http://loinc.org",
              "code": "8716-3",
              "display": "Vital Signs Panel"
            }
          ]
        },
        "subject": {
          "reference": "Patient/Patient-6494",
          "display": "Glen Cochran Estrada"
        },
        "context": {
          "reference": "Encounter/Encounter-326",
          "display": "Wellness Visit"
        },
        "effectivePeriod": {
          "start": "1989-04-23T10:00:00-04:00",
          "end": "1989-04-23T10:00:00-04:00"
        },
        "issued": "1989-04-23T10:00:00.000-04:00",
        "result": [
          {
            "reference": "Observation/Observation-27163",
            "display": "Height"
          },
          {
            "reference": "Observation/Observation-27164",
            "display": "Weight"
          },
          {
            "reference": "Observation/Observation-27165",
            "display": "BMI"
          },
          {
            "reference": "Observation/Observation-27166",
            "display": "Temperature"
          },
          {
            "reference": "Observation/Observation-27167",
            "display": "Systolic Blood Pressure"
          },
          {
            "reference": "Observation/Observation-27168",
            "display": "Diastolic Blood Pressure"
          }
        ]
      },
      "request": {
        "method": "PUT",
        "url": "http://localhost:8080/cqf-ruler/baseDstu3/DiagnosticReport/DiagnosticReport-27162"
      }
    }
  ]
}