{
  "resourceType": "Bundle",
  "id": "Glen-Cochran-Estrada-6494-Encounter-311",
  "type": "transaction",
  "entry": [
    {
      "fullUrl": "http://localhost:8080/cqf-ruler/baseDstu3Encounter/Encounter-311",
      "resource": {
        "resourceType": "Encounter",
        "id": "Encounter-311",
        "status": "finished",
        "class": {
          "system": "http://hl7.org/fhir/encounter-class",
          "code": "outpatient",
          "display": "Inpatient"
        },
        "subject": {
          "reference": "Patient/Patient-6494",
          "display": "Glen Cochran Estrada"
        },
        "participant": [
          {
            "period": {
              "start": "1989-01-01T21:00:00-05:00",
              "end": "1989-01-01T21:00:00-05:00"
            },
            "individual": {
              "reference": "Practitioner/Practitioner-2531",
              "display": "Tracy Hampton Boone MD"
            }
          }
        ],
        "period": {
          "start": "1989-01-01T21:00:00-05:00",
          "end": "1989-01-01T21:00:00-05:00"
        },
        "location": [
          {
            "location": {
              "reference": "Location/Location-1104",
              "display": "Bay Area Family Practice"
            }
          }
        ],
        "serviceProvider": {
          "reference": "Organization/Organization-1104",
          "display": "Bay Area Family Practice"
        }
      },
      "request": {
        "method": "PUT",
        "url": "http://localhost:8080/cqf-ruler/baseDstu3Encounter/Encounter-311"
      }
    },
    {
      "fullUrl": "http://localhost:8080/cqf-ruler/baseDstu3Observation/Observation-17624",
      "resource": {
        "resourceType": "Observation",
        "id": "Observation-17624",
        "status": "final",
        "code": {
          "coding": [
            {
              "system": "http://loinc.org",
              "code": "8302-2",
              "display": "Height"
            }
          ]
        },
        "subject": {
          "reference": "Patient/Patient-6494",
          "display": "Glen Cochran Estrada"
        },
        "context": {
          "reference": "Encounter/Encounter-311",
          "display": "Wellness Visit"
        },
        "effectiveDateTime": "1989-01-01T21:00:00-05:00",
        "performer": [
          {
            "reference": "Practitioner/Practitioner-2531",
            "display": "Tracy Hampton Boone MD"
          }
        ],
        "valueQuantity": {
          "value": 0.0,
          "unit": "cm"
        }
      },
      "request": {
        "method": "PUT",
        "url": "http://localhost:8080/cqf-ruler/baseDstu3Observation/Observation-17624"
      }
    },
    {
      "fullUrl": "http://localhost:8080/cqf-ruler/baseDstu3Observation/Observation-17625",
      "resource": {
        "resourceType": "Observation",
        "id": "Observation-17625",
        "status": "final",
        "code": {
          "coding": [
            {
              "system": "http://loinc.org",
              "code": "29463-7",
              "display": "Weight"
            }
          ]
        },
        "subject": {
          "reference": "Patient/Patient-6494",
          "display": "Glen Cochran Estrada"
        },
        "context": {
          "reference": "Encounter/Encounter-311",
          "display": "Wellness Visit"
        },
        "effectiveDateTime": "1989-01-01T21:00:00-05:00",
        "performer": [
          {
            "reference": "Practitioner/Practitioner-2531",
            "display": "Tracy Hampton Boone MD"
          }
        ],
        "valueQuantity": {
          "value": 0.0,
          "unit": "kg"
        }
      },
      "request": {
        "method": "PUT",
        "url": "http://localhost:8080/cqf-ruler/baseDstu3Observation/Observation-17625"
      }
    },
    {
      "fullUrl": "http://localhost:8080/cqf-ruler/baseDstu3Observation/Observation-17626",
      "resource": {
        "resourceType": "Observation",
        "id": "Observation-17626",
        "status": "final",
        "code": {
          "coding": [
            {
              "system": "http://loinc.org",
              "code": "39156-5",
              "display": "BMI"
            }
          ]
        },
        "subject": {
          "reference": "Patient/Patient-6494",
          "display": "Glen Cochran Estrada"
        },
        "context": {
          "reference": "Encounter/Encounter-311",
          "display": "Wellness Visit"
        },
        "effectiveDateTime": "1989-01-01T21:00:00-05:00",
        "performer": [
          {
            "reference": "Practitioner/Practitioner-2531",
            "display": "Tracy Hampton Boone MD"
          }
        ],
        "valueQuantity": {
          "value": 0.0,
          "unit": "kg/m2"
        }
      },
      "request": {
        "method": "PUT",
        "url": "http://localhost:8080/cqf-ruler/baseDstu3Observation/Observation-17626"
      }
    },
    {
      "fullUrl": "http://localhost:8080/cqf-ruler/baseDstu3Observation/Observation-17627",
      "resource": {
        "resourceType": "Observation",
        "id": "Observation-17627",
        "status": "final",
        "code": {
          "coding": [
            {
              "system": "http://loinc.org",
              "code": "8310-5",
              "display": "Temperature"
            }
          ]
        },
        "subject": {
          "reference": "Patient/Patient-6494",
          "display": "Glen Cochran Estrada"
        },
        "context": {
          "reference": "Encounter/Encounter-311",
          "display": "Wellness Visit"
        },
        "effectiveDateTime": "1989-01-01T21:00:00-05:00",
        "performer": [
          {
            "reference": "Practitioner/Practitioner-2531",
            "display": "Tracy Hampton Boone MD"
          }
        ],
        "valueQuantity": {
          "value": 37.0,
          "unit": "C"
        }
      },
      "request": {
        "method": "PUT",
        "url": "http://localhost:8080/cqf-ruler/baseDstu3Observation/Observation-17627"
      }
    },
    {
      "fullUrl": "http://localhost:8080/cqf-ruler/baseDstu3Observation/Observation-17628",
      "resource": {
        "resourceType": "Observation",
        "id": "Observation-17628",
        "status": "final",
        "code": {
          "coding": [
            {
              "system": "http://loinc.org",
              "code": "8459-0",
              "display": "Systolic Blood Pressure"
            }
          ]
        },
        "subject": {
          "reference": "Patient/Patient-6494",
          "display": "Glen Cochran Estrada"
        },
        "context": {
          "reference": "Encounter/Encounter-311",
          "display": "Wellness Visit"
        },
        "effectiveDateTime": "1989-01-01T21:00:00-05:00",
        "performer": [
          {
            "reference": "Practitioner/Practitioner-2531",
            "display": "Tracy Hampton Boone MD"
          }
        ],
        "valueQuantity": {
          "value": 131.31329879510145,
          "unit": "mmHg"
        }
      },
      "request": {
        "method": "PUT",
        "url": "http://localhost:8080/cqf-ruler/baseDstu3Observation/Observation-17628"
      }
    },
    {
      "fullUrl": "http://localhost:8080/cqf-ruler/baseDstu3Observation/Observation-17629",
      "resource": {
        "resourceType": "Observation",
        "id": "Observation-17629",
        "status": "final",
        "code": {
          "coding": [
            {
              "system": "http://loinc.org",
              "code": "8453-3",
              "display": "Diastolic Blood Pressure"
            }
          ]
        },
        "subject": {
          "reference": "Patient/Patient-6494",
          "display": "Glen Cochran Estrada"
        },
        "context": {
          "reference": "Encounter/Encounter-311",
          "display": "Wellness Visit"
        },
        "effectiveDateTime": "1989-01-01T21:00:00-05:00",
        "performer": [
          {
            "reference": "Practitioner/Practitioner-2531",
            "display": "Tracy Hampton Boone MD"
          }
        ],
        "valueQuantity": {
          "value": 72.37687546181397,
          "unit": "mmHg"
        }
      },
      "request": {
        "method": "PUT",
        "url": "http://localhost:8080/cqf-ruler/baseDstu3Observation/Observation-17629"
      }
    },
    {
      "fullUrl": "http://localhost:8080/cqf-ruler/baseDstu3DiagnosticReport/DiagnosticReport-17623",
      "resource": {
        "resourceType": "DiagnosticReport",
        "id": "DiagnosticReport-17623",
        "status": "final",
        "code": {
          "coding": [
            {
              "system": "http://loinc.org",
              "code": "8716-3",
              "display": "Vital Signs Panel"
            }
          ]
        },
        "subject": {
          "reference": "Patient/Patient-6494",
          "display": "Glen Cochran Estrada"
        },
        "context": {
          "reference": "Encounter/Encounter-311",
          "display": "Wellness Visit"
        },
        "effectivePeriod": {
          "start": "1989-01-01T21:00:00-05:00",
          "end": "1989-01-01T21:00:00-05:00"
        },
        "issued": "1989-01-01T21:00:00.000-05:00",
        "result": [
          {
            "reference": "Observation/Observation-17624",
            "display": "Height"
          },
          {
            "reference": "Observation/Observation-17625",
            "display": "Weight"
          },
          {
            "reference": "Observation/Observation-17626",
            "display": "BMI"
          },
          {
            "reference": "Observation/Observation-17627",
            "display": "Temperature"
          },
          {
            "reference": "Observation/Observation-17628",
            "display": "Systolic Blood Pressure"
          },
          {
            "reference": "Observation/Observation-17629",
            "display": "Diastolic Blood Pressure"
          }
        ]
      },
      "request": {
        "method": "PUT",
        "url": "http://localhost:8080/cqf-ruler/baseDstu3DiagnosticReport/DiagnosticReport-17623"
      }
    }
  ]
}