{
  "resourceType": "Bundle",
  "id": "Glen Cochran Estrada-6494-Encounter-324",
  "type": "transaction",
  "entry": [
    {
      "fullUrl": "http://localhost:8080/cqf-ruler/baseDstu3/Encounter/Encounter-324",
      "resource": {
        "resourceType": "Encounter",
        "id": "Encounter-324",
        "status": "finished",
        "class": {
          "system": "http://hl7.org/fhir/encounter-class",
          "code": "outpatient",
          "display": "Inpatient"
        },
        "subject": {
          "reference": "Patient/Patient-6494",
          "display": "Glen Cochran Estrada"
        },
        "participant": [
          {
            "period": {
              "start": "1989-02-15T13:00:00-05:00",
              "end": "1989-02-15T13:00:00-05:00"
            },
            "individual": {
              "reference": "Practitioner/Practitioner-2531",
              "display": "Tracy Hampton Boone MD"
            }
          }
        ],
        "period": {
          "start": "1989-02-15T13:00:00-05:00",
          "end": "1989-02-15T13:00:00-05:00"
        },
        "location": [
          {
            "location": {
              "reference": "Location/Location-1104",
              "display": "Bay Area Family Practice"
            }
          }
        ],
        "serviceProvider": {
          "reference": "Organization/Organization-1104",
          "display": "Bay Area Family Practice"
        }
      },
      "request": {
        "method": "PUT",
        "url": "http://localhost:8080/cqf-ruler/baseDstu3/Encounter/Encounter-324"
      }
    },
    {
      "fullUrl": "http://localhost:8080/cqf-ruler/baseDstu3/Observation/Observation-20630",
      "resource": {
        "resourceType": "Observation",
        "id": "Observation-20630",
        "status": "final",
        "code": {
          "coding": [
            {
              "system": "http://loinc.org",
              "code": "8302-2",
              "display": "Height"
            }
          ]
        },
        "subject": {
          "reference": "Patient/Patient-6494",
          "display": "Glen Cochran Estrada"
        },
        "context": {
          "reference": "Encounter/Encounter-324",
          "display": "Bay Area Family Practice"
        },
        "effectiveDateTime": "1989-02-15T13:00:00-05:00",
        "performer": [
          {
            "reference": "Practitioner/Practitioner-2531",
            "display": "Tracy Hampton Boone MD"
          }
        ],
        "valueQuantity": {
          "value": 0.0,
          "unit": "cm"
        }
      },
      "request": {
        "method": "PUT",
        "url": "http://localhost:8080/cqf-ruler/baseDstu3/Observation/Observation-20630"
      }
    },
    {
      "fullUrl": "http://localhost:8080/cqf-ruler/baseDstu3/Observation/Observation-20631",
      "resource": {
        "resourceType": "Observation",
        "id": "Observation-20631",
        "status": "final",
        "code": {
          "coding": [
            {
              "system": "http://loinc.org",
              "code": "29463-7",
              "display": "Weight"
            }
          ]
        },
        "subject": {
          "reference": "Patient/Patient-6494",
          "display": "Glen Cochran Estrada"
        },
        "context": {
          "reference": "Encounter/Encounter-324",
          "display": "Bay Area Family Practice"
        },
        "effectiveDateTime": "1989-02-15T13:00:00-05:00",
        "performer": [
          {
            "reference": "Practitioner/Practitioner-2531",
            "display": "Tracy Hampton Boone MD"
          }
        ],
        "valueQuantity": {
          "value": 0.0,
          "unit": "kg"
        }
      },
      "request": {
        "method": "PUT",
        "url": "http://localhost:8080/cqf-ruler/baseDstu3/Observation/Observation-20631"
      }
    },
    {
      "fullUrl": "http://localhost:8080/cqf-ruler/baseDstu3/Observation/Observation-20632",
      "resource": {
        "resourceType": "Observation",
        "id": "Observation-20632",
        "status": "final",
        "code": {
          "coding": [
            {
              "system": "http://loinc.org",
              "code": "39156-5",
              "display": "BMI"
            }
          ]
        },
        "subject": {
          "reference": "Patient/Patient-6494",
          "display": "Glen Cochran Estrada"
        },
        "context": {
          "reference": "Encounter/Encounter-324",
          "display": "Bay Area Family Practice"
        },
        "effectiveDateTime": "1989-02-15T13:00:00-05:00",
        "performer": [
          {
            "reference": "Practitioner/Practitioner-2531",
            "display": "Tracy Hampton Boone MD"
          }
        ],
        "valueQuantity": {
          "value": 0.0,
          "unit": "kg/m2"
        }
      },
      "request": {
        "method": "PUT",
        "url": "http://localhost:8080/cqf-ruler/baseDstu3/Observation/Observation-20632"
      }
    },
    {
      "fullUrl": "http://localhost:8080/cqf-ruler/baseDstu3/Observation/Observation-20633",
      "resource": {
        "resourceType": "Observation",
        "id": "Observation-20633",
        "status": "final",
        "code": {
          "coding": [
            {
              "system": "http://loinc.org",
              "code": "8310-5",
              "display": "Temperature"
            }
          ]
        },
        "subject": {
          "reference": "Patient/Patient-6494",
          "display": "Glen Cochran Estrada"
        },
        "context": {
          "reference": "Encounter/Encounter-324",
          "display": "Bay Area Family Practice"
        },
        "effectiveDateTime": "1989-02-15T13:00:00-05:00",
        "performer": [
          {
            "reference": "Practitioner/Practitioner-2531",
            "display": "Tracy Hampton Boone MD"
          }
        ],
        "valueQuantity": {
          "value": 37.0,
          "unit": "C"
        }
      },
      "request": {
        "method": "PUT",
        "url": "http://localhost:8080/cqf-ruler/baseDstu3/Observation/Observation-20633"
      }
    },
    {
      "fullUrl": "http://localhost:8080/cqf-ruler/baseDstu3/Observation/Observation-20634",
      "resource": {
        "resourceType": "Observation",
        "id": "Observation-20634",
        "status": "final",
        "code": {
          "coding": [
            {
              "system": "http://loinc.org",
              "code": "8459-0",
              "display": "Systolic Blood Pressure"
            }
          ]
        },
        "subject": {
          "reference": "Patient/Patient-6494",
          "display": "Glen Cochran Estrada"
        },
        "context": {
          "reference": "Encounter/Encounter-324",
          "display": "Bay Area Family Practice"
        },
        "effectiveDateTime": "1989-02-15T13:00:00-05:00",
        "performer": [
          {
            "reference": "Practitioner/Practitioner-2531",
            "display": "Tracy Hampton Boone MD"
          }
        ],
        "valueQuantity": {
          "value": 108.4217446061019,
          "unit": "mmHg"
        }
      },
      "request": {
        "method": "PUT",
        "url": "http://localhost:8080/cqf-ruler/baseDstu3/Observation/Observation-20634"
      }
    },
    {
      "fullUrl": "http://localhost:8080/cqf-ruler/baseDstu3/Observation/Observation-20635",
      "resource": {
        "resourceType": "Observation",
        "id": "Observation-20635",
        "status": "final",
        "code": {
          "coding": [
            {
              "system": "http://loinc.org",
              "code": "8453-3",
              "display": "Diastolic Blood Pressure"
            }
          ]
        },
        "subject": {
          "reference": "Patient/Patient-6494",
          "display": "Glen Cochran Estrada"
        },
        "context": {
          "reference": "Encounter/Encounter-324",
          "display": "Bay Area Family Practice"
        },
        "effectiveDateTime": "1989-02-15T13:00:00-05:00",
        "performer": [
          {
            "reference": "Practitioner/Practitioner-2531",
            "display": "Tracy Hampton Boone MD"
          }
        ],
        "valueQuantity": {
          "value": 75.84703836522823,
          "unit": "mmHg"
        }
      },
      "request": {
        "method": "PUT",
        "url": "http://localhost:8080/cqf-ruler/baseDstu3/Observation/Observation-20635"
      }
    },
    {
      "fullUrl": "http://localhost:8080/cqf-ruler/baseDstu3/DiagnosticReport/DiagnosticReport-20629",
      "resource": {
        "resourceType": "DiagnosticReport",
        "id": "DiagnosticReport-20629",
        "status": "final",
        "code": {
          "coding": [
            {
              "system": "http://loinc.org",
              "code": "8716-3",
              "display": "Vital Signs Panel"
            }
          ]
        },
        "subject": {
          "reference": "Patient/Patient-6494",
          "display": "Glen Cochran Estrada"
        },
        "context": {
          "reference": "Encounter/Encounter-324",
          "display": "Bay Area Family Practice"
        },
        "effectivePeriod": {
          "start": "1989-02-15T13:00:00-05:00",
          "end": "1989-02-15T13:00:00-05:00"
        },
        "issued": "1989-02-15T13:00:00.000-05:00",
        "result": [
          {
            "reference": "Observation/Observation-20630",
            "display": "Height"
          },
          {
            "reference": "Observation/Observation-20631",
            "display": "Weight"
          },
          {
            "reference": "Observation/Observation-20632",
            "display": "BMI"
          },
          {
            "reference": "Observation/Observation-20633",
            "display": "Temperature"
          },
          {
            "reference": "Observation/Observation-20634",
            "display": "Systolic Blood Pressure"
          },
          {
            "reference": "Observation/Observation-20635",
            "display": "Diastolic Blood Pressure"
          }
        ]
      },
      "request": {
        "method": "PUT",
        "url": "http://localhost:8080/cqf-ruler/baseDstu3/DiagnosticReport/DiagnosticReport-20629"
      }
    }
  ]
}