{
  "resourceType": "Bundle",
  "id": "97683691-bd79-4d78-b9a1-dbe15e4ff5fe",
  "type": "transaction",
  "entry": [
    {
      "fullUrl": "http://localhost:8080/cqf-ruler/baseDstu3/Encounter/Encounter-903",
      "resource": {
        "resourceType": "Encounter",
        "id": "Encounter-903",
        "status": "finished",
        "class": {
          "system": "http://hl7.org/fhir/encounter-class",
          "code": "other",
          "display": "Other"
        },
        "subject": {
          "reference": "Patient/Patient-1136",
          "display": "Angelica Desiree Jones"
        },
        "participant": [
          {
            "period": {
              "start": "2027-06-25T14:38:20-07:00",
              "end": "2027-06-25T14:38:20-07:00"
            },
            "individual": {
              "reference": "Practitioner/Practitioner-2533",
              "display": "Lena Dickerson Ballard MD"
            }
          }
        ],
        "period": {
          "start": "2027-06-25T14:38:20-07:00",
          "end": "2027-06-25T14:38:20-07:00"
        },
        "location": [
          {
            "location": {
              "reference": "Location/Location-1106",
              "display": "Cranston Family Medical"
            }
          }
        ],
        "serviceProvider": {
          "reference": "Organization/Organization-1106",
          "display": "Cranston Family Medical"
        }
      },
      "request": {
        "method": "PUT",
        "url": "http://localhost:8080/cqf-ruler/baseDstu3/Encounter/Encounter-903"
      }
    },
    {
      "fullUrl": "http://localhost:8080/cqf-ruler/baseDstu3/Immunization/Immunization-178163",
      "resource": {
        "resourceType": "Immunization",
        "id": "Immunization-178163",
        "status": "completed",
        "notGiven": false,
        "vaccineCode": {
          "coding": [
            {
              "system": "http://hl7.org/fhir/sid/cvx",
              "code": "140",
              "display": "Influenza, seasonal, injectable, preservative free"
            }
          ]
        },
        "patient": {
          "reference": "Patient/Patient-1136",
          "display": "Angelica Desiree Jones"
        },
        "date": "2027-06-21T14:38:20-07:00",
        "primarySource": true,
        "location": {
          "reference": "Location/Location-1106",
          "display": "Cranston Family Medical"
        },
        "practitioner": [
          {
            "actor": {
              "reference": "Practitioner/Practitioner-2533",
              "display": "Lena Dickerson Ballard MD"
            }
          }
        ]
      },
      "request": {
        "method": "PUT",
        "url": "http://localhost:8080/cqf-ruler/baseDstu3/Immunization/Immunization-178163"
      }
    },
    {
      "fullUrl": "http://localhost:8080/cqf-ruler/baseDstu3/Observation/Observation-255453",
      "resource": {
        "resourceType": "Observation",
        "id": "Observation-255453",
        "status": "final",
        "code": {
          "coding": [
            {
              "system": "http://loinc.org",
              "code": "8480-6",
              "display": "Systolic blood pressure"
            }
          ]
        },
        "subject": {
          "reference": "Patient/Patient-1136",
          "display": "Angelica Desiree Jones"
        },
        "context": {
          "reference": "Encounter/Encounter-903",
          "display": "Cranston Family Medical"
        },
        "effectiveDateTime": "2027-06-25T14:38:20-07:00",
        "performer": [
          {
            "reference": "Practitioner/Practitioner-2533",
            "display": "Lena Dickerson Ballard MD"
          }
        ],
        "valueQuantity": {
          "value": 119.41209185513465,
          "unit": "mmHg"
        }
      },
      "request": {
        "method": "PUT",
        "url": "http://localhost:8080/cqf-ruler/baseDstu3/Observation/Observation-255453"
      }
    },
    {
      "fullUrl": "http://localhost:8080/cqf-ruler/baseDstu3/Observation/Observation-255454",
      "resource": {
        "resourceType": "Observation",
        "id": "Observation-255454",
        "status": "final",
        "code": {
          "coding": [
            {
              "system": "http://loinc.org",
              "code": "8462-4",
              "display": "Diastolic blood pressure"
            }
          ]
        },
        "subject": {
          "reference": "Patient/Patient-1136",
          "display": "Angelica Desiree Jones"
        },
        "context": {
          "reference": "Encounter/Encounter-903",
          "display": "Cranston Family Medical"
        },
        "effectiveDateTime": "2027-06-25T14:38:20-07:00",
        "performer": [
          {
            "reference": "Practitioner/Practitioner-2533",
            "display": "Lena Dickerson Ballard MD"
          }
        ],
        "valueQuantity": {
          "value": 81.82548996272736,
          "unit": "mmHg"
        }
      },
      "request": {
        "method": "PUT",
        "url": "http://localhost:8080/cqf-ruler/baseDstu3/Observation/Observation-255454"
      }
    },
    {
      "fullUrl": "http://localhost:8080/cqf-ruler/baseDstu3/Procedure/Procedure-255455",
      "resource": {
        "resourceType": "Procedure",
        "id": "Procedure-255455",
        "status": "completed",
        "code": {
          "coding": [
            {
              "system": "http://loinc.org",
              "code": "19765-7",
              "display": "Microscopic observation [Identifier] in Cervical or vaginal smear or scraping by Cyto stain"
            }
          ]
        },
        "subject": {
          "reference": "Patient/Patient-1136",
          "display": "Angelica Desiree Jones"
        },
        "context": {
          "reference": "Encounter/Encounter-903",
          "display": "Cranston Family Medical"
        },
        "performedPeriod": {
          "start": "2027-06-25T14:38:20-07:00",
          "end": "2027-06-25T14:38:20-07:00"
        },
        "performer": [
          {
            "actor": {
              "reference": "Practitioner/Practitioner-2533",
              "display": "Lena Dickerson Ballard MD"
            }
          }
        ],
        "location": {
          "reference": "Location/Location-1106",
          "display": "Cranston Family Medical"
        }
      },
      "request": {
        "method": "PUT",
        "url": "http://localhost:8080/cqf-ruler/baseDstu3/Procedure/Procedure-255455"
      }
    },
    {
      "fullUrl": "http://localhost:8080/cqf-ruler/baseDstu3/Observation/Observation-255456",
      "resource": {
        "resourceType": "Observation",
        "id": "Observation-255456",
        "status": "final",
        "code": {
          "coding": [
            {
              "system": "http://snomed.info/sct",
              "code": "289829007",
              "display": "Normal uterine cervix (finding)"
            }
          ]
        },
        "subject": {
          "reference": "Patient/Patient-1136",
          "display": "Angelica Desiree Jones"
        },
        "context": {
          "reference": "Encounter/Encounter-903",
          "display": "Cranston Family Medical"
        },
        "effectiveDateTime": "2027-06-25T14:38:20-07:00",
        "performer": [
          {
            "reference": "Practitioner/Practitioner-2533",
            "display": "Lena Dickerson Ballard MD"
          }
        ],
        "valueString": "NEGATIVE"
      },
      "request": {
        "method": "PUT",
        "url": "http://localhost:8080/cqf-ruler/baseDstu3/Observation/Observation-255456"
      }
    },
    {
      "fullUrl": "http://localhost:8080/cqf-ruler/baseDstu3/DiagnosticReport/DiagnosticReport-255457",
      "resource": {
        "resourceType": "DiagnosticReport",
        "id": "DiagnosticReport-255457",
        "status": "final",
        "code": {
          "coding": [
            {
              "system": "http://loinc.org",
              "code": "46350-5",
              "display": "Breast - unilateral Mammogram diagnostic"
            }
          ]
        },
        "subject": {
          "reference": "Patient/Patient-1136",
          "display": "Angelica Desiree Jones"
        },
        "context": {
          "reference": "Encounter/Encounter-903",
          "display": "Cranston Family Medical"
        },
        "effectivePeriod": {
          "start": "2027-06-25T14:38:20-07:00",
          "end": "2027-06-25T14:38:20-07:00"
        },
        "issued": "2017-08-31T14:38:20-07:00",
        "result": [
          {
            "reference": "Observation/Observation-255456",
            "display": "No_Cancer_Detected"
          }
        ]
      },
      "request": {
        "method": "PUT",
        "url": "http://localhost:8080/cqf-ruler/baseDstu3/DiagnosticReport/DiagnosticReport-255457"
      }
    },
    {
      "fullUrl": "http://localhost:8080/cqf-ruler/baseDstu3/Observation/Observation-255458",
      "resource": {
        "resourceType": "Observation",
        "id": "Observation-255458",
        "status": "final",
        "category": [
          {
            "coding": [
              {
                "system": "http://hl7.org/fhir/observation-category",
                "code": "vital-signs",
                "display": "vital-signs"
              }
            ]
          }
        ],
        "code": {
          "coding": [
            {
              "system": "http://loinc.org",
              "code": "8716-3",
              "display": "Vital Signs Panel"
            }
          ]
        },
        "subject": {
          "reference": "Patient/Patient-1136",
          "display": "Angelica Desiree Jones"
        },
        "context": {
          "reference": "Encounter/Encounter-903",
          "display": "Cranston Family Medical"
        },
        "effectivePeriod": {
          "start": "2027-06-25T14:38:20-07:00",
          "end": "2027-06-25T14:38:20-07:00"
        },
        "valueQuantity": {
          "value": 81.82548996272736,
          "unit": "mmHg"
        },
        "component": [
          {
            "code": {
              "coding": [
                {
                  "system": "http://loinc.org",
                  "code": "8302-2",
                  "display": "Height"
                }
              ]
            }
          },
          {
            "code": {
              "coding": [
                {
                  "system": "http://loinc.org",
                  "code": "29463-7",
                  "display": "Weight"
                }
              ]
            }
          },
          {
            "code": {
              "coding": [
                {
                  "system": "http://loinc.org",
                  "code": "39156-5",
                  "display": "BMI"
                }
              ]
            }
          },
          {
            "code": {
              "coding": [
                {
                  "system": "http://loinc.org",
                  "code": "8310-5",
                  "display": "Temperature"
                }
              ]
            }
          },
          {
            "code": {
              "coding": [
                {
                  "system": "http://loinc.org",
                  "code": "8459-0",
                  "display": "Systolic Blood Pressure"
                }
              ]
            }
          },
          {
            "code": {
              "coding": [
                {
                  "system": "http://loinc.org",
                  "code": "8453-3",
                  "display": "Diastolic Blood Pressure"
                }
              ]
            }
          }
        ]
      },
      "request": {
        "method": "PUT",
        "url": "http://localhost:8080/cqf-ruler/baseDstu3/Observation/Observation-255458"
      }
    }
  ]
}