{
  "resourceType": "Bundle",
  "id": "Angelica Desiree Jones-1136-Encounter-1326",
  "type": "transaction",
  "entry": [
    {
      "fullUrl": "http://localhost:8080/cqf-ruler/baseDstu3/Encounter/Encounter-1326",
      "resource": {
        "resourceType": "Encounter",
        "id": "Encounter-1326",
        "status": "finished",
        "class": {
          "system": "http://hl7.org/fhir/encounter-class",
          "code": "outpatient",
          "display": "Inpatient"
        },
        "subject": {
          "reference": "Patient/Patient-1136",
          "display": "Angelica Desiree Jones"
        },
        "participant": [
          {
            "period": {
              "start": "2002-05-19T02:00:00-04:00",
              "end": "2002-05-19T02:00:00-04:00"
            },
            "individual": {
              "reference": "Practitioner/Practitioner-2533",
              "display": "Lena Dickerson Ballard MD"
            }
          }
        ],
        "period": {
          "start": "2002-05-19T02:00:00-04:00",
          "end": "2002-05-19T02:00:00-04:00"
        },
        "location": [
          {
            "location": {
              "reference": "Location/Location-1106",
              "display": "Cranston Family Medical"
            }
          }
        ],
        "serviceProvider": {
          "reference": "Organization/Organization-1106",
          "display": "Cranston Family Medical"
        }
      },
      "request": {
        "method": "PUT",
        "url": "http://localhost:8080/cqf-ruler/baseDstu3/Encounter/Encounter-1326"
      }
    },
    {
      "fullUrl": "http://localhost:8080/cqf-ruler/baseDstu3/Immunization/Immunization-261323",
      "resource": {
        "resourceType": "Immunization",
        "id": "Immunization-261323",
        "status": "completed",
        "notGiven": false,
        "vaccineCode": {
          "coding": [
            {
              "system": "http://hl7.org/fhir/sid/cvx",
              "code": "140",
              "display": "Influenza, seasonal, injectable, preservative free"
            }
          ]
        },
        "patient": {
          "reference": "Patient/Patient-1136",
          "display": "Angelica Desiree Jones"
        },
        "date": "2002-05-19T02:00:00-04:00",
        "primarySource": true,
        "location": {
          "reference": "Location/Location-1106",
          "display": "Cranston Family Medical"
        },
        "practitioner": [
          {
            "actor": {
              "reference": "Practitioner/Practitioner-2533",
              "display": "Lena Dickerson Ballard MD"
            }
          }
        ]
      },
      "request": {
        "method": "PUT",
        "url": "http://localhost:8080/cqf-ruler/baseDstu3/Immunization/Immunization-261323"
      }
    },
    {
      "fullUrl": "http://localhost:8080/cqf-ruler/baseDstu3/Observation/Observation-282840",
      "resource": {
        "resourceType": "Observation",
        "id": "Observation-282840",
        "status": "final",
        "code": {
          "coding": [
            {
              "system": "http://loinc.org",
              "code": "8302-2",
              "display": "Height"
            }
          ]
        },
        "subject": {
          "reference": "Patient/Patient-1136",
          "display": "Angelica Desiree Jones"
        },
        "context": {
          "reference": "Encounter/Encounter-1326",
          "display": "Cranston Family Medical"
        },
        "effectiveDateTime": "2002-05-19T02:00:00-04:00",
        "performer": [
          {
            "reference": "Practitioner/Practitioner-2533",
            "display": "Lena Dickerson Ballard MD"
          }
        ],
        "valueQuantity": {
          "value": 137.8,
          "unit": "cm"
        }
      },
      "request": {
        "method": "PUT",
        "url": "http://localhost:8080/cqf-ruler/baseDstu3/Observation/Observation-282840"
      }
    },
    {
      "fullUrl": "http://localhost:8080/cqf-ruler/baseDstu3/Observation/Observation-282841",
      "resource": {
        "resourceType": "Observation",
        "id": "Observation-282841",
        "status": "final",
        "code": {
          "coding": [
            {
              "system": "http://loinc.org",
              "code": "29463-7",
              "display": "Weight"
            }
          ]
        },
        "subject": {
          "reference": "Patient/Patient-1136",
          "display": "Angelica Desiree Jones"
        },
        "context": {
          "reference": "Encounter/Encounter-1326",
          "display": "Cranston Family Medical"
        },
        "effectiveDateTime": "2002-05-19T02:00:00-04:00",
        "performer": [
          {
            "reference": "Practitioner/Practitioner-2533",
            "display": "Lena Dickerson Ballard MD"
          }
        ],
        "valueQuantity": {
          "value": 0.0,
          "unit": "kg"
        }
      },
      "request": {
        "method": "PUT",
        "url": "http://localhost:8080/cqf-ruler/baseDstu3/Observation/Observation-282841"
      }
    },
    {
      "fullUrl": "http://localhost:8080/cqf-ruler/baseDstu3/Observation/Observation-282842",
      "resource": {
        "resourceType": "Observation",
        "id": "Observation-282842",
        "status": "final",
        "code": {
          "coding": [
            {
              "system": "http://loinc.org",
              "code": "39156-5",
              "display": "BMI"
            }
          ]
        },
        "subject": {
          "reference": "Patient/Patient-1136",
          "display": "Angelica Desiree Jones"
        },
        "context": {
          "reference": "Encounter/Encounter-1326",
          "display": "Cranston Family Medical"
        },
        "effectiveDateTime": "2002-05-19T02:00:00-04:00",
        "performer": [
          {
            "reference": "Practitioner/Practitioner-2533",
            "display": "Lena Dickerson Ballard MD"
          }
        ],
        "valueQuantity": {
          "value": 0.0,
          "unit": "kg/m2"
        }
      },
      "request": {
        "method": "PUT",
        "url": "http://localhost:8080/cqf-ruler/baseDstu3/Observation/Observation-282842"
      }
    },
    {
      "fullUrl": "http://localhost:8080/cqf-ruler/baseDstu3/Observation/Observation-282843",
      "resource": {
        "resourceType": "Observation",
        "id": "Observation-282843",
        "status": "final",
        "code": {
          "coding": [
            {
              "system": "http://loinc.org",
              "code": "8310-5",
              "display": "Temperature"
            }
          ]
        },
        "subject": {
          "reference": "Patient/Patient-1136",
          "display": "Angelica Desiree Jones"
        },
        "context": {
          "reference": "Encounter/Encounter-1326",
          "display": "Cranston Family Medical"
        },
        "effectiveDateTime": "2002-05-19T02:00:00-04:00",
        "performer": [
          {
            "reference": "Practitioner/Practitioner-2533",
            "display": "Lena Dickerson Ballard MD"
          }
        ],
        "valueQuantity": {
          "value": 37.0,
          "unit": "C"
        }
      },
      "request": {
        "method": "PUT",
        "url": "http://localhost:8080/cqf-ruler/baseDstu3/Observation/Observation-282843"
      }
    },
    {
      "fullUrl": "http://localhost:8080/cqf-ruler/baseDstu3/Observation/Observation-282844",
      "resource": {
        "resourceType": "Observation",
        "id": "Observation-282844",
        "status": "final",
        "code": {
          "coding": [
            {
              "system": "http://loinc.org",
              "code": "8459-0",
              "display": "Systolic Blood Pressure"
            }
          ]
        },
        "subject": {
          "reference": "Patient/Patient-1136",
          "display": "Angelica Desiree Jones"
        },
        "context": {
          "reference": "Encounter/Encounter-1326",
          "display": "Cranston Family Medical"
        },
        "effectiveDateTime": "2002-05-19T02:00:00-04:00",
        "performer": [
          {
            "reference": "Practitioner/Practitioner-2533",
            "display": "Lena Dickerson Ballard MD"
          }
        ],
        "valueQuantity": {
          "value": 135.83012954857278,
          "unit": "mmHg"
        }
      },
      "request": {
        "method": "PUT",
        "url": "http://localhost:8080/cqf-ruler/baseDstu3/Observation/Observation-282844"
      }
    },
    {
      "fullUrl": "http://localhost:8080/cqf-ruler/baseDstu3/Observation/Observation-282845",
      "resource": {
        "resourceType": "Observation",
        "id": "Observation-282845",
        "status": "final",
        "code": {
          "coding": [
            {
              "system": "http://loinc.org",
              "code": "8453-3",
              "display": "Diastolic Blood Pressure"
            }
          ]
        },
        "subject": {
          "reference": "Patient/Patient-1136",
          "display": "Angelica Desiree Jones"
        },
        "context": {
          "reference": "Encounter/Encounter-1326",
          "display": "Cranston Family Medical"
        },
        "effectiveDateTime": "2002-05-19T02:00:00-04:00",
        "performer": [
          {
            "reference": "Practitioner/Practitioner-2533",
            "display": "Lena Dickerson Ballard MD"
          }
        ],
        "valueQuantity": {
          "value": 76.46393212532465,
          "unit": "mmHg"
        }
      },
      "request": {
        "method": "PUT",
        "url": "http://localhost:8080/cqf-ruler/baseDstu3/Observation/Observation-282845"
      }
    },
    {
      "fullUrl": "http://localhost:8080/cqf-ruler/baseDstu3/DiagnosticReport/DiagnosticReport-282839",
      "resource": {
        "resourceType": "DiagnosticReport",
        "id": "DiagnosticReport-282839",
        "status": "final",
        "code": {
          "coding": [
            {
              "system": "http://loinc.org",
              "code": "8716-3",
              "display": "Vital Signs Panel"
            }
          ]
        },
        "subject": {
          "reference": "Patient/Patient-1136",
          "display": "Angelica Desiree Jones"
        },
        "context": {
          "reference": "Encounter/Encounter-1326",
          "display": "Cranston Family Medical"
        },
        "effectivePeriod": {
          "start": "2002-05-19T02:00:00-04:00",
          "end": "2002-05-19T02:00:00-04:00"
        },
        "issued": "2002-05-19T02:00:00.000-04:00",
        "result": [
          {
            "reference": "Observation/Observation-282840",
            "display": "Height"
          },
          {
            "reference": "Observation/Observation-282841",
            "display": "Weight"
          },
          {
            "reference": "Observation/Observation-282842",
            "display": "BMI"
          },
          {
            "reference": "Observation/Observation-282843",
            "display": "Temperature"
          },
          {
            "reference": "Observation/Observation-282844",
            "display": "Systolic Blood Pressure"
          },
          {
            "reference": "Observation/Observation-282845",
            "display": "Diastolic Blood Pressure"
          }
        ]
      },
      "request": {
        "method": "PUT",
        "url": "http://localhost:8080/cqf-ruler/baseDstu3/DiagnosticReport/DiagnosticReport-282839"
      }
    }
  ]
}