{
  "resourceType": "Bundle",
  "id": "Cady-Grace-Paulson-1126-Encounter-2404",
  "type": "transaction",
  "entry": [
    {
      "fullUrl": "http://localhost:8080/cqf-ruler/baseDstu3/Encounter/Encounter-2404",
      "resource": {
        "resourceType": "Encounter",
        "id": "Encounter-2404",
        "status": "finished",
        "class": {
          "system": "http://hl7.org/fhir/encounter-class",
          "code": "outpatient",
          "display": "Inpatient"
        },
        "subject": {
          "reference": "Patient/Patient-1126",
          "display": "Cady Grace Paulson"
        },
        "participant": [
          {
            "period": {
              "start": "2012-04-27T00:00:00-04:00",
              "end": "2012-04-27T00:00:00-04:00"
            },
            "individual": {
              "reference": "Practitioner/Practitioner-2522",
              "display": "Lois Jean Kent MD"
            }
          }
        ],
        "period": {
          "start": "2012-04-27T00:00:00-04:00",
          "end": "2012-04-27T00:00:00-04:00"
        },
        "location": [
          {
            "location": {
              "reference": "Location/Location-1101",
              "display": "McKinley Health Center"
            }
          }
        ],
        "serviceProvider": {
          "reference": "Organization/Organization-1101",
          "display": "McKinley Health Center"
        }
      },
      "request": {
        "method": "PUT",
        "url": "http://localhost:8080/cqf-ruler/baseDstu3/Encounter/Encounter-2404"
      }
    },
    {
      "fullUrl": "http://localhost:8080/cqf-ruler/baseDstu3/Immunization/Immunization-519108",
      "resource": {
        "resourceType": "Immunization",
        "id": "Immunization-519108",
        "status": "completed",
        "notGiven": false,
        "vaccineCode": {
          "coding": [
            {
              "system": "http://hl7.org/fhir/sid/cvx",
              "code": "20",
              "display": "DTaP"
            }
          ]
        },
        "patient": {
          "reference": "Patient/Patient-1126",
          "display": "Cady Grace Paulson"
        },
        "date": "2012-04-27T00:00:00-04:00",
        "primarySource": true,
        "location": {
          "reference": "Location/Location-1101",
          "display": "McKinley Health Center"
        },
        "practitioner": [
          {
            "actor": {
              "reference": "Practitioner/Practitioner-2522",
              "display": "Lois Jean Kent MD"
            }
          }
        ]
      },
      "request": {
        "method": "PUT",
        "url": "http://localhost:8080/cqf-ruler/baseDstu3/Immunization/Immunization-519108"
      }
    },
    {
      "fullUrl": "http://localhost:8080/cqf-ruler/baseDstu3/Immunization/Immunization-519109",
      "resource": {
        "resourceType": "Immunization",
        "id": "Immunization-519109",
        "status": "completed",
        "notGiven": false,
        "vaccineCode": {
          "coding": [
            {
              "system": "http://hl7.org/fhir/sid/cvx",
              "code": "08",
              "display": "Hep B, adolescent or pediatric"
            }
          ]
        },
        "patient": {
          "reference": "Patient/Patient-1126",
          "display": "Cady Grace Paulson"
        },
        "date": "2012-04-27T00:00:00-04:00",
        "primarySource": true,
        "location": {
          "reference": "Location/Location-1101",
          "display": "McKinley Health Center"
        },
        "practitioner": [
          {
            "actor": {
              "reference": "Practitioner/Practitioner-2522",
              "display": "Lois Jean Kent MD"
            }
          }
        ]
      },
      "request": {
        "method": "PUT",
        "url": "http://localhost:8080/cqf-ruler/baseDstu3/Immunization/Immunization-519109"
      }
    },
    {
      "fullUrl": "http://localhost:8080/cqf-ruler/baseDstu3/Immunization/Immunization-519110",
      "resource": {
        "resourceType": "Immunization",
        "id": "Immunization-519110",
        "status": "completed",
        "notGiven": false,
        "vaccineCode": {
          "coding": [
            {
              "system": "http://hl7.org/fhir/sid/cvx",
              "code": "49",
              "display": "Hib (PRP-OMP)"
            }
          ]
        },
        "patient": {
          "reference": "Patient/Patient-1126",
          "display": "Cady Grace Paulson"
        },
        "date": "2012-04-27T00:00:00-04:00",
        "primarySource": true,
        "location": {
          "reference": "Location/Location-1101",
          "display": "McKinley Health Center"
        },
        "practitioner": [
          {
            "actor": {
              "reference": "Practitioner/Practitioner-2522",
              "display": "Lois Jean Kent MD"
            }
          }
        ]
      },
      "request": {
        "method": "PUT",
        "url": "http://localhost:8080/cqf-ruler/baseDstu3/Immunization/Immunization-519110"
      }
    },
    {
      "fullUrl": "http://localhost:8080/cqf-ruler/baseDstu3/Immunization/Immunization-519111",
      "resource": {
        "resourceType": "Immunization",
        "id": "Immunization-519111",
        "status": "completed",
        "notGiven": false,
        "vaccineCode": {
          "coding": [
            {
              "system": "http://hl7.org/fhir/sid/cvx",
              "code": "10",
              "display": "IPV"
            }
          ]
        },
        "patient": {
          "reference": "Patient/Patient-1126",
          "display": "Cady Grace Paulson"
        },
        "date": "2012-04-27T00:00:00-04:00",
        "primarySource": true,
        "location": {
          "reference": "Location/Location-1101",
          "display": "McKinley Health Center"
        },
        "practitioner": [
          {
            "actor": {
              "reference": "Practitioner/Practitioner-2522",
              "display": "Lois Jean Kent MD"
            }
          }
        ]
      },
      "request": {
        "method": "PUT",
        "url": "http://localhost:8080/cqf-ruler/baseDstu3/Immunization/Immunization-519111"
      }
    },
    {
      "fullUrl": "http://localhost:8080/cqf-ruler/baseDstu3/Immunization/Immunization-519112",
      "resource": {
        "resourceType": "Immunization",
        "id": "Immunization-519112",
        "status": "completed",
        "notGiven": false,
        "vaccineCode": {
          "coding": [
            {
              "system": "http://hl7.org/fhir/sid/cvx",
              "code": "133",
              "display": "Pneumococcal conjugate PCV 13"
            }
          ]
        },
        "patient": {
          "reference": "Patient/Patient-1126",
          "display": "Cady Grace Paulson"
        },
        "date": "2012-04-27T00:00:00-04:00",
        "primarySource": true,
        "location": {
          "reference": "Location/Location-1101",
          "display": "McKinley Health Center"
        },
        "practitioner": [
          {
            "actor": {
              "reference": "Practitioner/Practitioner-2522",
              "display": "Lois Jean Kent MD"
            }
          }
        ]
      },
      "request": {
        "method": "PUT",
        "url": "http://localhost:8080/cqf-ruler/baseDstu3/Immunization/Immunization-519112"
      }
    },
    {
      "fullUrl": "http://localhost:8080/cqf-ruler/baseDstu3/Immunization/Immunization-519113",
      "resource": {
        "resourceType": "Immunization",
        "id": "Immunization-519113",
        "status": "completed",
        "notGiven": false,
        "vaccineCode": {
          "coding": [
            {
              "system": "http://hl7.org/fhir/sid/cvx",
              "code": "119",
              "display": "rotavirus, monovalent"
            }
          ]
        },
        "patient": {
          "reference": "Patient/Patient-1126",
          "display": "Cady Grace Paulson"
        },
        "date": "2012-04-27T00:00:00-04:00",
        "primarySource": true,
        "location": {
          "reference": "Location/Location-1101",
          "display": "McKinley Health Center"
        },
        "practitioner": [
          {
            "actor": {
              "reference": "Practitioner/Practitioner-2522",
              "display": "Lois Jean Kent MD"
            }
          }
        ]
      },
      "request": {
        "method": "PUT",
        "url": "http://localhost:8080/cqf-ruler/baseDstu3/Immunization/Immunization-519113"
      }
    },
    {
      "fullUrl": "http://localhost:8080/cqf-ruler/baseDstu3/Observation/Observation-523729",
      "resource": {
        "resourceType": "Observation",
        "id": "Observation-523729",
        "status": "final",
        "code": {
          "coding": [
            {
              "system": "http://loinc.org",
              "code": "8480-6",
              "display": "Systolic blood pressure"
            }
          ]
        },
        "subject": {
          "reference": "Patient/Patient-1126",
          "display": "Cady Grace Paulson"
        },
        "context": {
          "reference": "Encounter/Encounter-2404",
          "display": "Wellness Visit"
        },
        "effectivePeriod": {
          "start": "2012-04-27T00:00:00-04:00",
          "end": "2012-04-27T00:00:00-04:00"
        },
        "performer": [
          {
            "reference": "Practitioner/Practitioner-2522",
            "display": "Lois Jean Kent MD"
          }
        ],
        "valueQuantity": {
          "value": 164.09516723237263,
          "unit": "mmHg"
        }
      },
      "request": {
        "method": "PUT",
        "url": "http://localhost:8080/cqf-ruler/baseDstu3/Observation/Observation-523729"
      }
    },
    {
      "fullUrl": "http://localhost:8080/cqf-ruler/baseDstu3/Observation/Observation-523730",
      "resource": {
        "resourceType": "Observation",
        "id": "Observation-523730",
        "status": "final",
        "code": {
          "coding": [
            {
              "system": "http://loinc.org",
              "code": "8462-4",
              "display": "Diastolic blood pressure"
            }
          ]
        },
        "subject": {
          "reference": "Patient/Patient-1126",
          "display": "Cady Grace Paulson"
        },
        "context": {
          "reference": "Encounter/Encounter-2404",
          "display": "Wellness Visit"
        },
        "effectivePeriod": {
          "start": "2012-04-27T00:00:00-04:00",
          "end": "2012-04-27T00:00:00-04:00"
        },
        "performer": [
          {
            "reference": "Practitioner/Practitioner-2522",
            "display": "Lois Jean Kent MD"
          }
        ],
        "valueQuantity": {
          "value": 61.461265484439224,
          "unit": "mmHg"
        }
      },
      "request": {
        "method": "PUT",
        "url": "http://localhost:8080/cqf-ruler/baseDstu3/Observation/Observation-523730"
      }
    },
    {
      "fullUrl": "http://localhost:8080/cqf-ruler/baseDstu3/Condition/Condition-523731",
      "resource": {
        "resourceType": "Condition",
        "id": "Condition-523731",
        "clinicalStatus": "active",
        "verificationStatus": "confirmed",
        "code": {
          "coding": [
            {
              "system": "http://snomed.info/sct",
              "code": "59720008",
              "display": "Sustained diastolic hypertension"
            }
          ]
        },
        "subject": {
          "reference": "Patient/Patient-1126",
          "display": "Cady Grace Paulson"
        },
        "context": {
          "reference": "Encounter/Encounter-2404",
          "display": "Wellness Visit"
        },
        "onsetDateTime": "2012-04-27T00:00:00-04:00",
        "assertedDate": "2012-04-27T00:00:00-04:00",
        "asserter": {
          "reference": "Practitioner/Practitioner-2522",
          "display": "Lois Jean Kent MD"
        }
      },
      "request": {
        "method": "PUT",
        "url": "http://localhost:8080/cqf-ruler/baseDstu3/Condition/Condition-523731"
      }
    },
    {
      "fullUrl": "http://localhost:8080/cqf-ruler/baseDstu3/Observation/Observation-523732",
      "resource": {
        "resourceType": "Observation",
        "id": "Observation-523732",
        "status": "final",
        "code": {
          "coding": [
            {
              "system": "http://loinc.org",
              "code": "8302-2",
              "display": "Body Height"
            }
          ]
        },
        "subject": {
          "reference": "Patient/Patient-1126",
          "display": "Cady Grace Paulson"
        },
        "context": {
          "reference": "Encounter/Encounter-2404",
          "display": "Wellness Visit"
        },
        "effectivePeriod": {
          "start": "2012-04-27T00:00:00-04:00",
          "end": "2012-04-27T00:00:00-04:00"
        },
        "performer": [
          {
            "reference": "Practitioner/Practitioner-2522",
            "display": "Lois Jean Kent MD"
          }
        ],
        "valueQuantity": {
          "value": 65.1,
          "unit": "cm"
        }
      },
      "request": {
        "method": "PUT",
        "url": "http://localhost:8080/cqf-ruler/baseDstu3/Observation/Observation-523732"
      }
    },
    {
      "fullUrl": "http://localhost:8080/cqf-ruler/baseDstu3/Observation/Observation-523733",
      "resource": {
        "resourceType": "Observation",
        "id": "Observation-523733",
        "status": "final",
        "code": {
          "coding": [
            {
              "system": "http://loinc.org",
              "code": "29463-7",
              "display": "Body Weight"
            }
          ]
        },
        "subject": {
          "reference": "Patient/Patient-1126",
          "display": "Cady Grace Paulson"
        },
        "context": {
          "reference": "Encounter/Encounter-2404",
          "display": "Wellness Visit"
        },
        "effectivePeriod": {
          "start": "2012-04-27T00:00:00-04:00",
          "end": "2012-04-27T00:00:00-04:00"
        },
        "performer": [
          {
            "reference": "Practitioner/Practitioner-2522",
            "display": "Lois Jean Kent MD"
          }
        ],
        "valueQuantity": {
          "value": 6.4,
          "unit": "kg"
        }
      },
      "request": {
        "method": "PUT",
        "url": "http://localhost:8080/cqf-ruler/baseDstu3/Observation/Observation-523733"
      }
    },
    {
      "fullUrl": "http://localhost:8080/cqf-ruler/baseDstu3/Observation/Observation-523736",
      "resource": {
        "resourceType": "Observation",
        "id": "Observation-523736",
        "status": "final",
        "category": [
          {
            "coding": [
              {
                "system": "http://hl7.org/fhir/observation-category",
                "code": "vital-signs",
                "display": "vital-signs"
              }
            ]
          }
        ],
        "code": {
          "coding": [
            {
              "system": "http://loinc.org",
              "code": "55284-4",
              "display": "Blood Pressure"
            }
          ]
        },
        "subject": {
          "reference": "Patient/Patient-1126",
          "display": "Cady Grace Paulson"
        },
        "context": {
          "reference": "Encounter/Encounter-2404",
          "display": "Wellness Visit"
        },
        "effectivePeriod": {
          "start": "2012-04-27T00:00:00-04:00",
          "end": "2012-04-27T00:00:00-04:00"
        },
        "valueQuantity": {
          "value": 61.461265484439224,
          "unit": "mmHg"
        },
        "component": [
          {
            "code": {
              "coding": [
                {
                  "system": "http://loinc.org",
                  "code": "8480-6",
                  "display": "Systolic Blood Pressure"
                }
              ]
            }
          },
          {
            "code": {
              "coding": [
                {
                  "system": "http://loinc.org",
                  "code": "8462-4",
                  "display": "Diastolic Blood Pressure"
                }
              ]
            }
          }
        ]
      },
      "request": {
        "method": "PUT",
        "url": "http://localhost:8080/cqf-ruler/baseDstu3/Observation/Observation-523736"
      }
    },
    {
      "fullUrl": "http://localhost:8080/cqf-ruler/baseDstu3/Observation/Observation-523738",
      "resource": {
        "resourceType": "Observation",
        "id": "Observation-523738",
        "status": "final",
        "code": {
          "coding": [
            {
              "system": "http://loinc.org",
              "code": "8302-2",
              "display": "Height"
            }
          ]
        },
        "subject": {
          "reference": "Patient/Patient-1126",
          "display": "Cady Grace Paulson"
        },
        "context": {
          "reference": "Encounter/Encounter-2404",
          "display": "Wellness Visit"
        },
        "effectiveDateTime": "2012-04-27T00:00:00-04:00",
        "performer": [
          {
            "reference": "Practitioner/Practitioner-2522",
            "display": "Lois Jean Kent MD"
          }
        ],
        "valueQuantity": {
          "value": 65.1,
          "unit": "cm"
        }
      },
      "request": {
        "method": "PUT",
        "url": "http://localhost:8080/cqf-ruler/baseDstu3/Observation/Observation-523738"
      }
    },
    {
      "fullUrl": "http://localhost:8080/cqf-ruler/baseDstu3/Observation/Observation-523739",
      "resource": {
        "resourceType": "Observation",
        "id": "Observation-523739",
        "status": "final",
        "code": {
          "coding": [
            {
              "system": "http://loinc.org",
              "code": "29463-7",
              "display": "Weight"
            }
          ]
        },
        "subject": {
          "reference": "Patient/Patient-1126",
          "display": "Cady Grace Paulson"
        },
        "context": {
          "reference": "Encounter/Encounter-2404",
          "display": "Wellness Visit"
        },
        "effectiveDateTime": "2012-04-27T00:00:00-04:00",
        "performer": [
          {
            "reference": "Practitioner/Practitioner-2522",
            "display": "Lois Jean Kent MD"
          }
        ],
        "valueQuantity": {
          "value": 6.4,
          "unit": "kg"
        }
      },
      "request": {
        "method": "PUT",
        "url": "http://localhost:8080/cqf-ruler/baseDstu3/Observation/Observation-523739"
      }
    },
    {
      "fullUrl": "http://localhost:8080/cqf-ruler/baseDstu3/Observation/Observation-523740",
      "resource": {
        "resourceType": "Observation",
        "id": "Observation-523740",
        "status": "final",
        "code": {
          "coding": [
            {
              "system": "http://loinc.org",
              "code": "39156-5",
              "display": "BMI"
            }
          ]
        },
        "subject": {
          "reference": "Patient/Patient-1126",
          "display": "Cady Grace Paulson"
        },
        "context": {
          "reference": "Encounter/Encounter-2404",
          "display": "Wellness Visit"
        },
        "effectiveDateTime": "2012-04-27T00:00:00-04:00",
        "performer": [
          {
            "reference": "Practitioner/Practitioner-2522",
            "display": "Lois Jean Kent MD"
          }
        ],
        "valueQuantity": {
          "value": 15.101427320841626,
          "unit": "kg/m2"
        }
      },
      "request": {
        "method": "PUT",
        "url": "http://localhost:8080/cqf-ruler/baseDstu3/Observation/Observation-523740"
      }
    },
    {
      "fullUrl": "http://localhost:8080/cqf-ruler/baseDstu3/Observation/Observation-523741",
      "resource": {
        "resourceType": "Observation",
        "id": "Observation-523741",
        "status": "final",
        "code": {
          "coding": [
            {
              "system": "http://loinc.org",
              "code": "8310-5",
              "display": "Temperature"
            }
          ]
        },
        "subject": {
          "reference": "Patient/Patient-1126",
          "display": "Cady Grace Paulson"
        },
        "context": {
          "reference": "Encounter/Encounter-2404",
          "display": "Wellness Visit"
        },
        "effectiveDateTime": "2012-04-27T00:00:00-04:00",
        "performer": [
          {
            "reference": "Practitioner/Practitioner-2522",
            "display": "Lois Jean Kent MD"
          }
        ],
        "valueQuantity": {
          "value": 37.0,
          "unit": "C"
        }
      },
      "request": {
        "method": "PUT",
        "url": "http://localhost:8080/cqf-ruler/baseDstu3/Observation/Observation-523741"
      }
    },
    {
      "fullUrl": "http://localhost:8080/cqf-ruler/baseDstu3/Observation/Observation-523742",
      "resource": {
        "resourceType": "Observation",
        "id": "Observation-523742",
        "status": "final",
        "code": {
          "coding": [
            {
              "system": "http://loinc.org",
              "code": "8459-0",
              "display": "Systolic Blood Pressure"
            }
          ]
        },
        "subject": {
          "reference": "Patient/Patient-1126",
          "display": "Cady Grace Paulson"
        },
        "context": {
          "reference": "Encounter/Encounter-2404",
          "display": "Wellness Visit"
        },
        "effectiveDateTime": "2012-04-27T00:00:00-04:00",
        "performer": [
          {
            "reference": "Practitioner/Practitioner-2522",
            "display": "Lois Jean Kent MD"
          }
        ],
        "valueQuantity": {
          "value": 164.09516723237263,
          "unit": "mmHg"
        }
      },
      "request": {
        "method": "PUT",
        "url": "http://localhost:8080/cqf-ruler/baseDstu3/Observation/Observation-523742"
      }
    },
    {
      "fullUrl": "http://localhost:8080/cqf-ruler/baseDstu3/Observation/Observation-523743",
      "resource": {
        "resourceType": "Observation",
        "id": "Observation-523743",
        "status": "final",
        "code": {
          "coding": [
            {
              "system": "http://loinc.org",
              "code": "8453-3",
              "display": "Diastolic Blood Pressure"
            }
          ]
        },
        "subject": {
          "reference": "Patient/Patient-1126",
          "display": "Cady Grace Paulson"
        },
        "context": {
          "reference": "Encounter/Encounter-2404",
          "display": "Wellness Visit"
        },
        "effectiveDateTime": "2012-04-27T00:00:00-04:00",
        "performer": [
          {
            "reference": "Practitioner/Practitioner-2522",
            "display": "Lois Jean Kent MD"
          }
        ],
        "valueQuantity": {
          "value": 61.461265484439224,
          "unit": "mmHg"
        }
      },
      "request": {
        "method": "PUT",
        "url": "http://localhost:8080/cqf-ruler/baseDstu3/Observation/Observation-523743"
      }
    },
    {
      "fullUrl": "http://localhost:8080/cqf-ruler/baseDstu3/DiagnosticReport/DiagnosticReport-523737",
      "resource": {
        "resourceType": "DiagnosticReport",
        "id": "DiagnosticReport-523737",
        "status": "final",
        "code": {
          "coding": [
            {
              "system": "http://loinc.org",
              "code": "8716-3",
              "display": "Vital Signs Panel"
            }
          ]
        },
        "subject": {
          "reference": "Patient/Patient-1126",
          "display": "Cady Grace Paulson"
        },
        "context": {
          "reference": "Encounter/Encounter-2404",
          "display": "Wellness Visit"
        },
        "effectivePeriod": {
          "start": "2012-04-27T00:00:00-04:00",
          "end": "2012-04-27T00:00:00-04:00"
        },
        "issued": "2012-04-27T00:00:00.000-04:00",
        "result": [
          {
            "reference": "Observation/Observation-523738",
            "display": "Height"
          },
          {
            "reference": "Observation/Observation-523739",
            "display": "Weight"
          },
          {
            "reference": "Observation/Observation-523740",
            "display": "BMI"
          },
          {
            "reference": "Observation/Observation-523741",
            "display": "Temperature"
          },
          {
            "reference": "Observation/Observation-523742",
            "display": "Systolic Blood Pressure"
          },
          {
            "reference": "Observation/Observation-523743",
            "display": "Diastolic Blood Pressure"
          }
        ]
      },
      "request": {
        "method": "PUT",
        "url": "http://localhost:8080/cqf-ruler/baseDstu3/DiagnosticReport/DiagnosticReport-523737"
      }
    }
  ]
}