{
  "resourceType": "Bundle",
  "id": "Cady-Grace-Paulson-1126-Encounter-4596",
  "type": "transaction",
  "entry": [
    {
      "fullUrl": "http://localhost:8080/cqf-ruler/baseDstu3/Encounter/Encounter-4596",
      "resource": {
        "resourceType": "Encounter",
        "id": "Encounter-4596",
        "meta": {
          "profile": [
            "http://hl7.org/fhir/us/hedis/StructureDefinition/hedis-encounter"
          ]
        },
        "status": "finished",
        "class": {
          "system": "http://hl7.org/fhir/encounter-class",
          "code": "outpatient",
          "display": "Outpatient"
        },
        "type": [
          {
            "coding": [
              {
                "system": "https://www.cms.gov/Medicare/Coding/MedHCPCSGenInfo",
                "code": "H0002",
                "display": "Behavioral health screening to determine eligibility for admission to treatment program (H0002)"
              }
            ]
          }
        ],
        "subject": {
          "reference": "Patient/Patient-1126",
          "display": "Cady Grace Paulson"
        },
        "participant": [
          {
            "period": {
              "start": "2017-12-08T00:00:00-05:00",
              "end": "2017-12-08T00:00:00-05:00"
            },
            "individual": {
              "reference": "Practitioner/Practitioner-2522",
              "display": "Lois Jean Kent MD"
            }
          }
        ],
        "period": {
          "start": "2017-12-08T00:00:00-05:00",
          "end": "2017-12-08T00:00:00-05:00"
        },
        "reason": [
          {
            "coding": [
              {
                "system": "http://snomed.info/sct",
                "code": "310495003",
                "display": "Mild depression (disorder)"
              }
            ]
          }
        ],
        "location": [
          {
            "location": {
              "reference": "Location/Location-1101",
              "display": "McKinley Health Center"
            }
          }
        ],
        "serviceProvider": {
          "reference": "Organization/Organization-1101",
          "display": "McKinley Health Center"
        }
      },
      "request": {
        "method": "PUT",
        "url": "http://localhost:8080/cqf-ruler/baseDstu3/Encounter/Encounter-4596"
      }
    },
    {
      "fullUrl": "http://localhost:8080/cqf-ruler/baseDstu3/Procedure/Procedure-700553",
      "resource": {
        "resourceType": "Procedure",
        "id": "Procedure-700553",
        "meta": {
          "profile": [
            "http://hl7.org/fhir/us/hedis/StructureDefinition/hedis-procedure"
          ]
        },
        "status": "completed",
        "code": {
          "coding": [
            {
              "system": "http://test",
              "code": "2.16.840.1.113883.3.67.1.101.11.723",
              "display": "2.16.840.1.113883.3.67.1.101.11.723"
            }
          ]
        },
        "subject": {
          "reference": "Patient/Patient-1126",
          "display": "Cady Grace Paulson"
        },
        "context": {
          "reference": "Encounter/Encounter-4596",
          "display": "DRR_Encounter"
        },
        "performedPeriod": {
          "start": "2017-12-08T00:00:00-05:00",
          "end": "2017-12-08T00:00:00-05:00"
        },
        "performer": [
          {
            "actor": {
              "reference": "Practitioner/Practitioner-2522",
              "display": "Lois Jean Kent MD"
            }
          }
        ],
        "location": {
          "reference": "Location/Location-1101",
          "display": "McKinley Health Center"
        }
      },
      "request": {
        "method": "PUT",
        "url": "http://localhost:8080/cqf-ruler/baseDstu3/Procedure/Procedure-700553"
      }
    },
    {
      "fullUrl": "http://localhost:8080/cqf-ruler/baseDstu3/Observation/Observation-700554",
      "resource": {
        "resourceType": "Observation",
        "id": "Observation-700554",
        "meta": {
          "profile": [
            "http://hl7.org/fhir/us/hedis/StructureDefinition/hedis-observation"
          ]
        },
        "status": "final",
        "code": {
          "coding": [
            {
              "system": "http://cqframework.info/codesystem/placeholder",
              "code": "00009",
              "display": "PHQ-9 Modified Score"
            }
          ]
        },
        "subject": {
          "reference": "Patient/Patient-1126",
          "display": "Cady Grace Paulson"
        },
        "context": {
          "reference": "Encounter/Encounter-4596",
          "display": "DRR_Encounter"
        },
        "effectiveDateTime": "2017-12-08T00:00:00-05:00",
        "performer": [
          {
            "reference": "Practitioner/Practitioner-2522",
            "display": "Lois Jean Kent MD"
          }
        ],
        "valueQuantity": {
          "value": 0.0,
          "unit": "score"
        }
      },
      "request": {
        "method": "PUT",
        "url": "http://localhost:8080/cqf-ruler/baseDstu3/Observation/Observation-700554"
      }
    },
    {
      "fullUrl": "http://localhost:8080/cqf-ruler/baseDstu3/DiagnosticReport/DiagnosticReport-700555",
      "resource": {
        "resourceType": "DiagnosticReport",
        "id": "DiagnosticReport-700555",
        "meta": {
          "profile": [
            "http://hl7.org/fhir/us/hedis/StructureDefinition/hedis-diagnosticreport"
          ]
        },
        "status": "final",
        "category": {
          "coding": [
            {
              "system": "http://hl7.org/fhir/ValueSet/diagnostic-service-sections",
              "code": "OTH",
              "display": "Other"
            }
          ]
        },
        "code": {
          "coding": [
            {
              "system": "http://snomed.info/sct",
              "code": "370143000",
              "display": "Major depressive disorder (disorder)"
            }
          ]
        },
        "subject": {
          "reference": "Patient/Patient-1126",
          "display": "Cady Grace Paulson"
        },
        "context": {
          "reference": "Encounter/Encounter-4596",
          "display": "DRR_Encounter"
        },
        "effectivePeriod": {
          "start": "2017-12-08T00:00:00-05:00",
          "end": "2017-12-08T00:00:00-05:00"
        },
        "issued": "2017-12-08T00:00:00.000-05:00"
      },
      "request": {
        "method": "PUT",
        "url": "http://localhost:8080/cqf-ruler/baseDstu3/DiagnosticReport/DiagnosticReport-700555"
      }
    },
    {
      "fullUrl": "http://localhost:8080/cqf-ruler/baseDstu3/Observation/Observation-700558",
      "resource": {
        "resourceType": "Observation",
        "id": "Observation-700558",
        "status": "final",
        "code": {
          "coding": [
            {
              "system": "http://loinc.org",
              "code": "8302-2",
              "display": "Height"
            }
          ]
        },
        "subject": {
          "reference": "Patient/Patient-1126",
          "display": "Cady Grace Paulson"
        },
        "context": {
          "reference": "Encounter/Encounter-4596",
          "display": "DRR_Encounter"
        },
        "effectiveDateTime": "2017-12-08T00:00:00-05:00",
        "performer": [
          {
            "reference": "Practitioner/Practitioner-2522",
            "display": "Lois Jean Kent MD"
          }
        ],
        "valueQuantity": {
          "value": 124.0,
          "unit": "cm"
        }
      },
      "request": {
        "method": "PUT",
        "url": "http://localhost:8080/cqf-ruler/baseDstu3/Observation/Observation-700558"
      }
    },
    {
      "fullUrl": "http://localhost:8080/cqf-ruler/baseDstu3/Observation/Observation-700559",
      "resource": {
        "resourceType": "Observation",
        "id": "Observation-700559",
        "status": "final",
        "code": {
          "coding": [
            {
              "system": "http://loinc.org",
              "code": "29463-7",
              "display": "Weight"
            }
          ]
        },
        "subject": {
          "reference": "Patient/Patient-1126",
          "display": "Cady Grace Paulson"
        },
        "context": {
          "reference": "Encounter/Encounter-4596",
          "display": "DRR_Encounter"
        },
        "effectiveDateTime": "2017-12-08T00:00:00-05:00",
        "performer": [
          {
            "reference": "Practitioner/Practitioner-2522",
            "display": "Lois Jean Kent MD"
          }
        ],
        "valueQuantity": {
          "value": 22.2,
          "unit": "kg"
        }
      },
      "request": {
        "method": "PUT",
        "url": "http://localhost:8080/cqf-ruler/baseDstu3/Observation/Observation-700559"
      }
    },
    {
      "fullUrl": "http://localhost:8080/cqf-ruler/baseDstu3/Observation/Observation-700560",
      "resource": {
        "resourceType": "Observation",
        "id": "Observation-700560",
        "status": "final",
        "code": {
          "coding": [
            {
              "system": "http://loinc.org",
              "code": "39156-5",
              "display": "BMI"
            }
          ]
        },
        "subject": {
          "reference": "Patient/Patient-1126",
          "display": "Cady Grace Paulson"
        },
        "context": {
          "reference": "Encounter/Encounter-4596",
          "display": "DRR_Encounter"
        },
        "effectiveDateTime": "2017-12-08T00:00:00-05:00",
        "performer": [
          {
            "reference": "Practitioner/Practitioner-2522",
            "display": "Lois Jean Kent MD"
          }
        ],
        "valueQuantity": {
          "value": 14.438085327783558,
          "unit": "kg/m2"
        }
      },
      "request": {
        "method": "PUT",
        "url": "http://localhost:8080/cqf-ruler/baseDstu3/Observation/Observation-700560"
      }
    },
    {
      "fullUrl": "http://localhost:8080/cqf-ruler/baseDstu3/Observation/Observation-700561",
      "resource": {
        "resourceType": "Observation",
        "id": "Observation-700561",
        "status": "final",
        "code": {
          "coding": [
            {
              "system": "http://loinc.org",
              "code": "8310-5",
              "display": "Temperature"
            }
          ]
        },
        "subject": {
          "reference": "Patient/Patient-1126",
          "display": "Cady Grace Paulson"
        },
        "context": {
          "reference": "Encounter/Encounter-4596",
          "display": "DRR_Encounter"
        },
        "effectiveDateTime": "2017-12-08T00:00:00-05:00",
        "performer": [
          {
            "reference": "Practitioner/Practitioner-2522",
            "display": "Lois Jean Kent MD"
          }
        ],
        "valueQuantity": {
          "value": 37.0,
          "unit": "C"
        }
      },
      "request": {
        "method": "PUT",
        "url": "http://localhost:8080/cqf-ruler/baseDstu3/Observation/Observation-700561"
      }
    },
    {
      "fullUrl": "http://localhost:8080/cqf-ruler/baseDstu3/Observation/Observation-700562",
      "resource": {
        "resourceType": "Observation",
        "id": "Observation-700562",
        "status": "final",
        "code": {
          "coding": [
            {
              "system": "http://loinc.org",
              "code": "8459-0",
              "display": "Systolic Blood Pressure"
            }
          ]
        },
        "subject": {
          "reference": "Patient/Patient-1126",
          "display": "Cady Grace Paulson"
        },
        "context": {
          "reference": "Encounter/Encounter-4596",
          "display": "DRR_Encounter"
        },
        "effectiveDateTime": "2017-12-08T00:00:00-05:00",
        "performer": [
          {
            "reference": "Practitioner/Practitioner-2522",
            "display": "Lois Jean Kent MD"
          }
        ],
        "valueQuantity": {
          "value": 134.6532115596369,
          "unit": "mmHg"
        }
      },
      "request": {
        "method": "PUT",
        "url": "http://localhost:8080/cqf-ruler/baseDstu3/Observation/Observation-700562"
      }
    },
    {
      "fullUrl": "http://localhost:8080/cqf-ruler/baseDstu3/Observation/Observation-700563",
      "resource": {
        "resourceType": "Observation",
        "id": "Observation-700563",
        "status": "final",
        "code": {
          "coding": [
            {
              "system": "http://loinc.org",
              "code": "8453-3",
              "display": "Diastolic Blood Pressure"
            }
          ]
        },
        "subject": {
          "reference": "Patient/Patient-1126",
          "display": "Cady Grace Paulson"
        },
        "context": {
          "reference": "Encounter/Encounter-4596",
          "display": "DRR_Encounter"
        },
        "effectiveDateTime": "2017-12-08T00:00:00-05:00",
        "performer": [
          {
            "reference": "Practitioner/Practitioner-2522",
            "display": "Lois Jean Kent MD"
          }
        ],
        "valueQuantity": {
          "value": 114.70542562272135,
          "unit": "mmHg"
        }
      },
      "request": {
        "method": "PUT",
        "url": "http://localhost:8080/cqf-ruler/baseDstu3/Observation/Observation-700563"
      }
    },
    {
      "fullUrl": "http://localhost:8080/cqf-ruler/baseDstu3/DiagnosticReport/DiagnosticReport-700557",
      "resource": {
        "resourceType": "DiagnosticReport",
        "id": "DiagnosticReport-700557",
        "meta": {
          "profile": [
            "http://hl7.org/fhir/us/hedis/StructureDefinition/hedis-diagnosticreport"
          ]
        },
        "status": "final",
        "category": {
          "coding": [
            {
              "system": "http://hl7.org/fhir/ValueSet/diagnostic-service-sections",
              "code": "LAB",
              "display": "Laboratory"
            }
          ]
        },
        "code": {
          "coding": [
            {
              "system": "http://loinc.org",
              "code": "8716-3",
              "display": "Vital Signs Panel"
            }
          ]
        },
        "subject": {
          "reference": "Patient/Patient-1126",
          "display": "Cady Grace Paulson"
        },
        "context": {
          "reference": "Encounter/Encounter-4596",
          "display": "DRR_Encounter"
        },
        "effectivePeriod": {
          "start": "2017-12-08T00:00:00-05:00",
          "end": "2017-12-08T00:00:00-05:00"
        },
        "issued": "2017-12-08T00:00:00.000-05:00",
        "result": [
          {
            "reference": "Observation/Observation-700558",
            "display": "Height"
          },
          {
            "reference": "Observation/Observation-700559",
            "display": "Weight"
          },
          {
            "reference": "Observation/Observation-700560",
            "display": "BMI"
          },
          {
            "reference": "Observation/Observation-700561",
            "display": "Temperature"
          },
          {
            "reference": "Observation/Observation-700562",
            "display": "Systolic Blood Pressure"
          },
          {
            "reference": "Observation/Observation-700563",
            "display": "Diastolic Blood Pressure"
          }
        ]
      },
      "request": {
        "method": "PUT",
        "url": "http://localhost:8080/cqf-ruler/baseDstu3/DiagnosticReport/DiagnosticReport-700557"
      }
    }
  ]
}