{
  "resourceType": "Bundle",
  "id": "Cady-Grace-Paulson-1126-Encounter-2185",
  "type": "transaction",
  "entry": [
    {
      "fullUrl": "http://localhost:8080/cqf-ruler/baseDstu3Encounter/Encounter-2185",
      "resource": {
        "resourceType": "Encounter",
        "id": "Encounter-2185",
        "status": "finished",
        "class": {
          "system": "http://hl7.org/fhir/encounter-class",
          "code": "outpatient",
          "display": "Inpatient"
        },
        "subject": {
          "reference": "Patient/Patient-1126",
          "display": "Cady Grace Paulson"
        },
        "participant": [
          {
            "period": {
              "start": "2011-01-14T06:00:00-05:00",
              "end": "2011-01-14T06:00:00-05:00"
            },
            "individual": {
              "reference": "Practitioner/Practitioner-2522",
              "display": "Lois Jean Kent MD"
            }
          }
        ],
        "period": {
          "start": "2011-01-14T06:00:00-05:00",
          "end": "2011-01-14T06:00:00-05:00"
        },
        "location": [
          {
            "location": {
              "reference": "Location/Location-1101",
              "display": "McKinley Health Center"
            }
          }
        ],
        "serviceProvider": {
          "reference": "Organization/Organization-1101",
          "display": "McKinley Health Center"
        }
      },
      "request": {
        "method": "PUT",
        "url": "http://localhost:8080/cqf-ruler/baseDstu3Encounter/Encounter-2185"
      }
    },
    {
      "fullUrl": "http://localhost:8080/cqf-ruler/baseDstu3Observation/Observation-473734",
      "resource": {
        "resourceType": "Observation",
        "id": "Observation-473734",
        "status": "final",
        "code": {
          "coding": [
            {
              "system": "http://loinc.org",
              "code": "8302-2",
              "display": "Height"
            }
          ]
        },
        "subject": {
          "reference": "Patient/Patient-1126",
          "display": "Cady Grace Paulson"
        },
        "context": {
          "reference": "Encounter/Encounter-2185",
          "display": "Wellness Visit"
        },
        "effectiveDateTime": "2011-01-14T06:00:00-05:00",
        "performer": [
          {
            "reference": "Practitioner/Practitioner-2522",
            "display": "Lois Jean Kent MD"
          }
        ],
        "valueQuantity": {
          "value": 0.0,
          "unit": "cm"
        }
      },
      "request": {
        "method": "PUT",
        "url": "http://localhost:8080/cqf-ruler/baseDstu3Observation/Observation-473734"
      }
    },
    {
      "fullUrl": "http://localhost:8080/cqf-ruler/baseDstu3Observation/Observation-473735",
      "resource": {
        "resourceType": "Observation",
        "id": "Observation-473735",
        "status": "final",
        "code": {
          "coding": [
            {
              "system": "http://loinc.org",
              "code": "29463-7",
              "display": "Weight"
            }
          ]
        },
        "subject": {
          "reference": "Patient/Patient-1126",
          "display": "Cady Grace Paulson"
        },
        "context": {
          "reference": "Encounter/Encounter-2185",
          "display": "Wellness Visit"
        },
        "effectiveDateTime": "2011-01-14T06:00:00-05:00",
        "performer": [
          {
            "reference": "Practitioner/Practitioner-2522",
            "display": "Lois Jean Kent MD"
          }
        ],
        "valueQuantity": {
          "value": 0.0,
          "unit": "kg"
        }
      },
      "request": {
        "method": "PUT",
        "url": "http://localhost:8080/cqf-ruler/baseDstu3Observation/Observation-473735"
      }
    },
    {
      "fullUrl": "http://localhost:8080/cqf-ruler/baseDstu3Observation/Observation-473736",
      "resource": {
        "resourceType": "Observation",
        "id": "Observation-473736",
        "status": "final",
        "code": {
          "coding": [
            {
              "system": "http://loinc.org",
              "code": "39156-5",
              "display": "BMI"
            }
          ]
        },
        "subject": {
          "reference": "Patient/Patient-1126",
          "display": "Cady Grace Paulson"
        },
        "context": {
          "reference": "Encounter/Encounter-2185",
          "display": "Wellness Visit"
        },
        "effectiveDateTime": "2011-01-14T06:00:00-05:00",
        "performer": [
          {
            "reference": "Practitioner/Practitioner-2522",
            "display": "Lois Jean Kent MD"
          }
        ],
        "valueQuantity": {
          "value": 0.0,
          "unit": "kg/m2"
        }
      },
      "request": {
        "method": "PUT",
        "url": "http://localhost:8080/cqf-ruler/baseDstu3Observation/Observation-473736"
      }
    },
    {
      "fullUrl": "http://localhost:8080/cqf-ruler/baseDstu3Observation/Observation-473737",
      "resource": {
        "resourceType": "Observation",
        "id": "Observation-473737",
        "status": "final",
        "code": {
          "coding": [
            {
              "system": "http://loinc.org",
              "code": "8310-5",
              "display": "Temperature"
            }
          ]
        },
        "subject": {
          "reference": "Patient/Patient-1126",
          "display": "Cady Grace Paulson"
        },
        "context": {
          "reference": "Encounter/Encounter-2185",
          "display": "Wellness Visit"
        },
        "effectiveDateTime": "2011-01-14T06:00:00-05:00",
        "performer": [
          {
            "reference": "Practitioner/Practitioner-2522",
            "display": "Lois Jean Kent MD"
          }
        ],
        "valueQuantity": {
          "value": 37.0,
          "unit": "C"
        }
      },
      "request": {
        "method": "PUT",
        "url": "http://localhost:8080/cqf-ruler/baseDstu3Observation/Observation-473737"
      }
    },
    {
      "fullUrl": "http://localhost:8080/cqf-ruler/baseDstu3Observation/Observation-473738",
      "resource": {
        "resourceType": "Observation",
        "id": "Observation-473738",
        "status": "final",
        "code": {
          "coding": [
            {
              "system": "http://loinc.org",
              "code": "8459-0",
              "display": "Systolic Blood Pressure"
            }
          ]
        },
        "subject": {
          "reference": "Patient/Patient-1126",
          "display": "Cady Grace Paulson"
        },
        "context": {
          "reference": "Encounter/Encounter-2185",
          "display": "Wellness Visit"
        },
        "effectiveDateTime": "2011-01-14T06:00:00-05:00",
        "performer": [
          {
            "reference": "Practitioner/Practitioner-2522",
            "display": "Lois Jean Kent MD"
          }
        ],
        "valueQuantity": {
          "value": 113.06545309114057,
          "unit": "mmHg"
        }
      },
      "request": {
        "method": "PUT",
        "url": "http://localhost:8080/cqf-ruler/baseDstu3Observation/Observation-473738"
      }
    },
    {
      "fullUrl": "http://localhost:8080/cqf-ruler/baseDstu3Observation/Observation-473739",
      "resource": {
        "resourceType": "Observation",
        "id": "Observation-473739",
        "status": "final",
        "code": {
          "coding": [
            {
              "system": "http://loinc.org",
              "code": "8453-3",
              "display": "Diastolic Blood Pressure"
            }
          ]
        },
        "subject": {
          "reference": "Patient/Patient-1126",
          "display": "Cady Grace Paulson"
        },
        "context": {
          "reference": "Encounter/Encounter-2185",
          "display": "Wellness Visit"
        },
        "effectiveDateTime": "2011-01-14T06:00:00-05:00",
        "performer": [
          {
            "reference": "Practitioner/Practitioner-2522",
            "display": "Lois Jean Kent MD"
          }
        ],
        "valueQuantity": {
          "value": 76.42720736097701,
          "unit": "mmHg"
        }
      },
      "request": {
        "method": "PUT",
        "url": "http://localhost:8080/cqf-ruler/baseDstu3Observation/Observation-473739"
      }
    },
    {
      "fullUrl": "http://localhost:8080/cqf-ruler/baseDstu3DiagnosticReport/DiagnosticReport-473733",
      "resource": {
        "resourceType": "DiagnosticReport",
        "id": "DiagnosticReport-473733",
        "status": "final",
        "code": {
          "coding": [
            {
              "system": "http://loinc.org",
              "code": "8716-3",
              "display": "Vital Signs Panel"
            }
          ]
        },
        "subject": {
          "reference": "Patient/Patient-1126",
          "display": "Cady Grace Paulson"
        },
        "context": {
          "reference": "Encounter/Encounter-2185",
          "display": "Wellness Visit"
        },
        "effectivePeriod": {
          "start": "2011-01-14T06:00:00-05:00",
          "end": "2011-01-14T06:00:00-05:00"
        },
        "issued": "2011-01-14T06:00:00.000-05:00",
        "result": [
          {
            "reference": "Observation/Observation-473734",
            "display": "Height"
          },
          {
            "reference": "Observation/Observation-473735",
            "display": "Weight"
          },
          {
            "reference": "Observation/Observation-473736",
            "display": "BMI"
          },
          {
            "reference": "Observation/Observation-473737",
            "display": "Temperature"
          },
          {
            "reference": "Observation/Observation-473738",
            "display": "Systolic Blood Pressure"
          },
          {
            "reference": "Observation/Observation-473739",
            "display": "Diastolic Blood Pressure"
          }
        ]
      },
      "request": {
        "method": "PUT",
        "url": "http://localhost:8080/cqf-ruler/baseDstu3DiagnosticReport/DiagnosticReport-473733"
      }
    }
  ]
}