{
  "resourceType": "Bundle",
  "id": "Melinda-Stella-McCoy-6506-Encounter-4566",
  "type": "transaction",
  "entry": [
    {
      "fullUrl": "http://localhost:8080/cqf-ruler/baseDstu3/Encounter/Encounter-4566",
      "resource": {
        "resourceType": "Encounter",
        "id": "Encounter-4566",
        "meta": {
          "profile": [
            "http://hl7.org/fhir/us/hedis/StructureDefinition/hedis-encounter"
          ]
        },
        "status": "finished",
        "class": {
          "system": "http://hl7.org/fhir/encounter-class",
          "code": "outpatient",
          "display": "Outpatient"
        },
        "type": [
          {
            "coding": [
              {
                "system": "http://snomed.info/sct",
                "code": "18170008",
                "display": "Subsequent nursing facility visit (procedure)"
              }
            ]
          }
        ],
        "subject": {
          "reference": "Patient/Patient-6506",
          "display": "Melinda Stella McCoy"
        },
        "participant": [
          {
            "period": {
              "start": "2017-11-21T00:00:00-05:00",
              "end": "2017-11-21T00:00:00-05:00"
            },
            "individual": {
              "reference": "Practitioner/Practitioner-2523",
              "display": "Dean Andrew Davis MD"
            }
          }
        ],
        "period": {
          "start": "2017-11-21T00:00:00-05:00",
          "end": "2017-11-21T00:00:00-05:00"
        },
        "reason": [
          {
            "coding": [
              {
                "system": "http://snomed.info/sct",
                "code": "310495003",
                "display": "Mild depression (disorder)"
              }
            ]
          }
        ],
        "location": [
          {
            "location": {
              "reference": "Location/Location-1102",
              "display": "Pediatric and Adult Medicine"
            }
          }
        ],
        "serviceProvider": {
          "reference": "Organization/Organization-1102",
          "display": "Pediatric and Adult Medicine"
        }
      },
      "request": {
        "method": "PUT",
        "url": "http://localhost:8080/cqf-ruler/baseDstu3/Encounter/Encounter-4566"
      }
    },
    {
      "fullUrl": "http://localhost:8080/cqf-ruler/baseDstu3/Procedure/Procedure-698541",
      "resource": {
        "resourceType": "Procedure",
        "id": "Procedure-698541",
        "meta": {
          "profile": [
            "http://hl7.org/fhir/us/hedis/StructureDefinition/hedis-procedure"
          ]
        },
        "status": "completed",
        "code": {
          "coding": [
            {
              "system": "http://test",
              "code": "2.16.840.1.113883.3.67.1.101.11.723",
              "display": "2.16.840.1.113883.3.67.1.101.11.723"
            }
          ]
        },
        "subject": {
          "reference": "Patient/Patient-6506",
          "display": "Melinda Stella McCoy"
        },
        "context": {
          "reference": "Encounter/Encounter-4566",
          "display": "DRR_Encounter"
        },
        "performedPeriod": {
          "start": "2017-11-21T00:00:00-05:00",
          "end": "2017-11-21T00:00:00-05:00"
        },
        "performer": [
          {
            "actor": {
              "reference": "Practitioner/Practitioner-2523",
              "display": "Dean Andrew Davis MD"
            }
          }
        ],
        "location": {
          "reference": "Location/Location-1102",
          "display": "Pediatric and Adult Medicine"
        }
      },
      "request": {
        "method": "PUT",
        "url": "http://localhost:8080/cqf-ruler/baseDstu3/Procedure/Procedure-698541"
      }
    },
    {
      "fullUrl": "http://localhost:8080/cqf-ruler/baseDstu3/Observation/Observation-698542",
      "resource": {
        "resourceType": "Observation",
        "id": "Observation-698542",
        "meta": {
          "profile": [
            "http://hl7.org/fhir/us/hedis/StructureDefinition/hedis-observation"
          ]
        },
        "status": "final",
        "code": {
          "coding": [
            {
              "system": "http://cqframework.info/codesystem/placeholder",
              "code": "00009",
              "display": "PHQ-9 Modified Score"
            }
          ]
        },
        "subject": {
          "reference": "Patient/Patient-6506",
          "display": "Melinda Stella McCoy"
        },
        "context": {
          "reference": "Encounter/Encounter-4566",
          "display": "DRR_Encounter"
        },
        "effectiveDateTime": "2017-11-21T00:00:00-05:00",
        "performer": [
          {
            "reference": "Practitioner/Practitioner-2523",
            "display": "Dean Andrew Davis MD"
          }
        ],
        "valueQuantity": {
          "value": 0.0,
          "unit": "score"
        }
      },
      "request": {
        "method": "PUT",
        "url": "http://localhost:8080/cqf-ruler/baseDstu3/Observation/Observation-698542"
      }
    },
    {
      "fullUrl": "http://localhost:8080/cqf-ruler/baseDstu3/DiagnosticReport/DiagnosticReport-698543",
      "resource": {
        "resourceType": "DiagnosticReport",
        "id": "DiagnosticReport-698543",
        "meta": {
          "profile": [
            "http://hl7.org/fhir/us/hedis/StructureDefinition/hedis-diagnosticreport"
          ]
        },
        "status": "final",
        "category": {
          "coding": [
            {
              "system": "http://hl7.org/fhir/ValueSet/diagnostic-service-sections",
              "code": "OTH",
              "display": "Other"
            }
          ]
        },
        "code": {
          "coding": [
            {
              "system": "http://snomed.info/sct",
              "code": "19527009",
              "display": "Single episode of major depression in full remission (disorder)"
            }
          ]
        },
        "subject": {
          "reference": "Patient/Patient-6506",
          "display": "Melinda Stella McCoy"
        },
        "context": {
          "reference": "Encounter/Encounter-4566",
          "display": "DRR_Encounter"
        },
        "effectivePeriod": {
          "start": "2017-11-21T00:00:00-05:00",
          "end": "2017-11-21T00:00:00-05:00"
        },
        "issued": "2017-11-21T00:00:00.000-05:00"
      },
      "request": {
        "method": "PUT",
        "url": "http://localhost:8080/cqf-ruler/baseDstu3/DiagnosticReport/DiagnosticReport-698543"
      }
    },
    {
      "fullUrl": "http://localhost:8080/cqf-ruler/baseDstu3/Observation/Observation-698546",
      "resource": {
        "resourceType": "Observation",
        "id": "Observation-698546",
        "status": "final",
        "code": {
          "coding": [
            {
              "system": "http://loinc.org",
              "code": "8302-2",
              "display": "Height"
            }
          ]
        },
        "subject": {
          "reference": "Patient/Patient-6506",
          "display": "Melinda Stella McCoy"
        },
        "context": {
          "reference": "Encounter/Encounter-4566",
          "display": "DRR_Encounter"
        },
        "effectiveDateTime": "2017-11-21T00:00:00-05:00",
        "performer": [
          {
            "reference": "Practitioner/Practitioner-2523",
            "display": "Dean Andrew Davis MD"
          }
        ],
        "valueQuantity": {
          "value": 174.0,
          "unit": "cm"
        }
      },
      "request": {
        "method": "PUT",
        "url": "http://localhost:8080/cqf-ruler/baseDstu3/Observation/Observation-698546"
      }
    },
    {
      "fullUrl": "http://localhost:8080/cqf-ruler/baseDstu3/Observation/Observation-698547",
      "resource": {
        "resourceType": "Observation",
        "id": "Observation-698547",
        "status": "final",
        "code": {
          "coding": [
            {
              "system": "http://loinc.org",
              "code": "29463-7",
              "display": "Weight"
            }
          ]
        },
        "subject": {
          "reference": "Patient/Patient-6506",
          "display": "Melinda Stella McCoy"
        },
        "context": {
          "reference": "Encounter/Encounter-4566",
          "display": "DRR_Encounter"
        },
        "effectiveDateTime": "2017-11-21T00:00:00-05:00",
        "performer": [
          {
            "reference": "Practitioner/Practitioner-2523",
            "display": "Dean Andrew Davis MD"
          }
        ],
        "valueQuantity": {
          "value": 97.36872574259924,
          "unit": "kg"
        }
      },
      "request": {
        "method": "PUT",
        "url": "http://localhost:8080/cqf-ruler/baseDstu3/Observation/Observation-698547"
      }
    },
    {
      "fullUrl": "http://localhost:8080/cqf-ruler/baseDstu3/Observation/Observation-698548",
      "resource": {
        "resourceType": "Observation",
        "id": "Observation-698548",
        "status": "final",
        "code": {
          "coding": [
            {
              "system": "http://loinc.org",
              "code": "39156-5",
              "display": "BMI"
            }
          ]
        },
        "subject": {
          "reference": "Patient/Patient-6506",
          "display": "Melinda Stella McCoy"
        },
        "context": {
          "reference": "Encounter/Encounter-4566",
          "display": "DRR_Encounter"
        },
        "effectiveDateTime": "2017-11-21T00:00:00-05:00",
        "performer": [
          {
            "reference": "Practitioner/Practitioner-2523",
            "display": "Dean Andrew Davis MD"
          }
        ],
        "valueQuantity": {
          "value": 32.16036654201322,
          "unit": "kg/m2"
        }
      },
      "request": {
        "method": "PUT",
        "url": "http://localhost:8080/cqf-ruler/baseDstu3/Observation/Observation-698548"
      }
    },
    {
      "fullUrl": "http://localhost:8080/cqf-ruler/baseDstu3/Observation/Observation-698549",
      "resource": {
        "resourceType": "Observation",
        "id": "Observation-698549",
        "status": "final",
        "code": {
          "coding": [
            {
              "system": "http://loinc.org",
              "code": "8310-5",
              "display": "Temperature"
            }
          ]
        },
        "subject": {
          "reference": "Patient/Patient-6506",
          "display": "Melinda Stella McCoy"
        },
        "context": {
          "reference": "Encounter/Encounter-4566",
          "display": "DRR_Encounter"
        },
        "effectiveDateTime": "2017-11-21T00:00:00-05:00",
        "performer": [
          {
            "reference": "Practitioner/Practitioner-2523",
            "display": "Dean Andrew Davis MD"
          }
        ],
        "valueQuantity": {
          "value": 37.0,
          "unit": "C"
        }
      },
      "request": {
        "method": "PUT",
        "url": "http://localhost:8080/cqf-ruler/baseDstu3/Observation/Observation-698549"
      }
    },
    {
      "fullUrl": "http://localhost:8080/cqf-ruler/baseDstu3/Observation/Observation-698550",
      "resource": {
        "resourceType": "Observation",
        "id": "Observation-698550",
        "status": "final",
        "code": {
          "coding": [
            {
              "system": "http://loinc.org",
              "code": "8459-0",
              "display": "Systolic Blood Pressure"
            }
          ]
        },
        "subject": {
          "reference": "Patient/Patient-6506",
          "display": "Melinda Stella McCoy"
        },
        "context": {
          "reference": "Encounter/Encounter-4566",
          "display": "DRR_Encounter"
        },
        "effectiveDateTime": "2017-11-21T00:00:00-05:00",
        "performer": [
          {
            "reference": "Practitioner/Practitioner-2523",
            "display": "Dean Andrew Davis MD"
          }
        ],
        "valueQuantity": {
          "value": 169.55716504013867,
          "unit": "mmHg"
        }
      },
      "request": {
        "method": "PUT",
        "url": "http://localhost:8080/cqf-ruler/baseDstu3/Observation/Observation-698550"
      }
    },
    {
      "fullUrl": "http://localhost:8080/cqf-ruler/baseDstu3/Observation/Observation-698551",
      "resource": {
        "resourceType": "Observation",
        "id": "Observation-698551",
        "status": "final",
        "code": {
          "coding": [
            {
              "system": "http://loinc.org",
              "code": "8453-3",
              "display": "Diastolic Blood Pressure"
            }
          ]
        },
        "subject": {
          "reference": "Patient/Patient-6506",
          "display": "Melinda Stella McCoy"
        },
        "context": {
          "reference": "Encounter/Encounter-4566",
          "display": "DRR_Encounter"
        },
        "effectiveDateTime": "2017-11-21T00:00:00-05:00",
        "performer": [
          {
            "reference": "Practitioner/Practitioner-2523",
            "display": "Dean Andrew Davis MD"
          }
        ],
        "valueQuantity": {
          "value": 112.8350295590791,
          "unit": "mmHg"
        }
      },
      "request": {
        "method": "PUT",
        "url": "http://localhost:8080/cqf-ruler/baseDstu3/Observation/Observation-698551"
      }
    },
    {
      "fullUrl": "http://localhost:8080/cqf-ruler/baseDstu3/DiagnosticReport/DiagnosticReport-698545",
      "resource": {
        "resourceType": "DiagnosticReport",
        "id": "DiagnosticReport-698545",
        "meta": {
          "profile": [
            "http://hl7.org/fhir/us/hedis/StructureDefinition/hedis-diagnosticreport"
          ]
        },
        "status": "final",
        "category": {
          "coding": [
            {
              "system": "http://hl7.org/fhir/ValueSet/diagnostic-service-sections",
              "code": "LAB",
              "display": "Laboratory"
            }
          ]
        },
        "code": {
          "coding": [
            {
              "system": "http://loinc.org",
              "code": "8716-3",
              "display": "Vital Signs Panel"
            }
          ]
        },
        "subject": {
          "reference": "Patient/Patient-6506",
          "display": "Melinda Stella McCoy"
        },
        "context": {
          "reference": "Encounter/Encounter-4566",
          "display": "DRR_Encounter"
        },
        "effectivePeriod": {
          "start": "2017-11-21T00:00:00-05:00",
          "end": "2017-11-21T00:00:00-05:00"
        },
        "issued": "2017-11-21T00:00:00.000-05:00",
        "result": [
          {
            "reference": "Observation/Observation-698546",
            "display": "Height"
          },
          {
            "reference": "Observation/Observation-698547",
            "display": "Weight"
          },
          {
            "reference": "Observation/Observation-698548",
            "display": "BMI"
          },
          {
            "reference": "Observation/Observation-698549",
            "display": "Temperature"
          },
          {
            "reference": "Observation/Observation-698550",
            "display": "Systolic Blood Pressure"
          },
          {
            "reference": "Observation/Observation-698551",
            "display": "Diastolic Blood Pressure"
          }
        ]
      },
      "request": {
        "method": "PUT",
        "url": "http://localhost:8080/cqf-ruler/baseDstu3/DiagnosticReport/DiagnosticReport-698545"
      }
    }
  ]
}