{
  "resourceType": "Bundle",
  "id": "Melinda Stella McCoy-6506-Encounter-894",
  "type": "transaction",
  "entry": [
    {
      "fullUrl": "http://localhost:8080/cqf-ruler/baseDstu3/Encounter/Encounter-894",
      "resource": {
        "resourceType": "Encounter",
        "id": "Encounter-894",
        "status": "finished",
        "class": {
          "system": "http://hl7.org/fhir/encounter-class",
          "code": "inpatient",
          "display": "Inpatient"
        },
        "subject": {
          "reference": "Patient/Patient-6506",
          "display": "Melinda Stella McCoy"
        },
        "participant": [
          {
            "period": {
              "start": "1995-07-09T00:00:00-04:00",
              "end": "1995-07-09T02:22:00-04:00"
            },
            "individual": {
              "reference": "Practitioner/Practitioner-2518",
              "display": "Jane Rosemary Saunders MD"
            }
          }
        ],
        "period": {
          "start": "1995-07-09T00:00:00-04:00",
          "end": "1995-07-09T02:22:00-04:00"
        },
        "location": [
          {
            "location": {
              "reference": "Location/Location-1001",
              "display": "Windward General Hospital"
            }
          }
        ],
        "serviceProvider": {
          "reference": "Organization/Organization-1001",
          "display": "Windward General Hospital"
        }
      },
      "request": {
        "method": "PUT",
        "url": "http://localhost:8080/cqf-ruler/baseDstu3/Encounter/Encounter-894"
      }
    },
    {
      "fullUrl": "http://localhost:8080/cqf-ruler/baseDstu3/Procedure/Procedure-143317",
      "resource": {
        "resourceType": "Procedure",
        "id": "Procedure-143317",
        "status": "completed",
        "code": {
          "coding": [
            {
              "system": "http://hl7.org/fhir/sid/icd-10-us",
              "code": "Z90.13",
              "display": "Acquired absence of bilateral breasts and nipples"
            }
          ]
        },
        "subject": {
          "reference": "Patient/Patient-6506",
          "display": "Melinda Stella McCoy"
        },
        "context": {
          "reference": "Encounter/Encounter-894",
          "display": "Windward General Hospital"
        },
        "performedPeriod": {
          "start": "1995-07-09T02:22:00-04:00",
          "end": "1995-07-09T02:22:00-04:00"
        },
        "performer": [
          {
            "actor": {
              "reference": "Practitioner/Practitioner-2518",
              "display": "Jane Rosemary Saunders MD"
            }
          }
        ],
        "location": {
          "reference": "Location/Location-1001",
          "display": "Windward General Hospital"
        }
      },
      "request": {
        "method": "PUT",
        "url": "http://localhost:8080/cqf-ruler/baseDstu3/Procedure/Procedure-143317"
      }
    },
    {
      "fullUrl": "http://localhost:8080/cqf-ruler/baseDstu3/Observation/Observation-143320",
      "resource": {
        "resourceType": "Observation",
        "id": "Observation-143320",
        "status": "final",
        "code": {
          "coding": [
            {
              "system": "http://loinc.org",
              "code": "8302-2",
              "display": "Height"
            }
          ]
        },
        "subject": {
          "reference": "Patient/Patient-6506",
          "display": "Melinda Stella McCoy"
        },
        "context": {
          "reference": "Encounter/Encounter-894",
          "display": "Windward General Hospital"
        },
        "effectiveDateTime": "1995-07-09T00:00:00-04:00",
        "performer": [
          {
            "reference": "Practitioner/Practitioner-2518",
            "display": "Jane Rosemary Saunders MD"
          }
        ],
        "valueQuantity": {
          "value": 171.6,
          "unit": "cm"
        }
      },
      "request": {
        "method": "PUT",
        "url": "http://localhost:8080/cqf-ruler/baseDstu3/Observation/Observation-143320"
      }
    },
    {
      "fullUrl": "http://localhost:8080/cqf-ruler/baseDstu3/Observation/Observation-143321",
      "resource": {
        "resourceType": "Observation",
        "id": "Observation-143321",
        "status": "final",
        "code": {
          "coding": [
            {
              "system": "http://loinc.org",
              "code": "29463-7",
              "display": "Weight"
            }
          ]
        },
        "subject": {
          "reference": "Patient/Patient-6506",
          "display": "Melinda Stella McCoy"
        },
        "context": {
          "reference": "Encounter/Encounter-894",
          "display": "Windward General Hospital"
        },
        "effectiveDateTime": "1995-07-09T00:00:00-04:00",
        "performer": [
          {
            "reference": "Practitioner/Practitioner-2518",
            "display": "Jane Rosemary Saunders MD"
          }
        ],
        "valueQuantity": {
          "value": 113.30808793252461,
          "unit": "kg"
        }
      },
      "request": {
        "method": "PUT",
        "url": "http://localhost:8080/cqf-ruler/baseDstu3/Observation/Observation-143321"
      }
    },
    {
      "fullUrl": "http://localhost:8080/cqf-ruler/baseDstu3/Observation/Observation-143322",
      "resource": {
        "resourceType": "Observation",
        "id": "Observation-143322",
        "status": "final",
        "code": {
          "coding": [
            {
              "system": "http://loinc.org",
              "code": "39156-5",
              "display": "BMI"
            }
          ]
        },
        "subject": {
          "reference": "Patient/Patient-6506",
          "display": "Melinda Stella McCoy"
        },
        "context": {
          "reference": "Encounter/Encounter-894",
          "display": "Windward General Hospital"
        },
        "effectiveDateTime": "1995-07-09T00:00:00-04:00",
        "performer": [
          {
            "reference": "Practitioner/Practitioner-2518",
            "display": "Jane Rosemary Saunders MD"
          }
        ],
        "valueQuantity": {
          "value": 38.47922743183741,
          "unit": "kg/m2"
        }
      },
      "request": {
        "method": "PUT",
        "url": "http://localhost:8080/cqf-ruler/baseDstu3/Observation/Observation-143322"
      }
    },
    {
      "fullUrl": "http://localhost:8080/cqf-ruler/baseDstu3/Observation/Observation-143323",
      "resource": {
        "resourceType": "Observation",
        "id": "Observation-143323",
        "status": "final",
        "code": {
          "coding": [
            {
              "system": "http://loinc.org",
              "code": "8310-5",
              "display": "Temperature"
            }
          ]
        },
        "subject": {
          "reference": "Patient/Patient-6506",
          "display": "Melinda Stella McCoy"
        },
        "context": {
          "reference": "Encounter/Encounter-894",
          "display": "Windward General Hospital"
        },
        "effectiveDateTime": "1995-07-09T00:00:00-04:00",
        "performer": [
          {
            "reference": "Practitioner/Practitioner-2518",
            "display": "Jane Rosemary Saunders MD"
          }
        ],
        "valueQuantity": {
          "value": 37.0,
          "unit": "C"
        }
      },
      "request": {
        "method": "PUT",
        "url": "http://localhost:8080/cqf-ruler/baseDstu3/Observation/Observation-143323"
      }
    },
    {
      "fullUrl": "http://localhost:8080/cqf-ruler/baseDstu3/Observation/Observation-143324",
      "resource": {
        "resourceType": "Observation",
        "id": "Observation-143324",
        "status": "final",
        "code": {
          "coding": [
            {
              "system": "http://loinc.org",
              "code": "8459-0",
              "display": "Systolic Blood Pressure"
            }
          ]
        },
        "subject": {
          "reference": "Patient/Patient-6506",
          "display": "Melinda Stella McCoy"
        },
        "context": {
          "reference": "Encounter/Encounter-894",
          "display": "Windward General Hospital"
        },
        "effectiveDateTime": "1995-07-09T00:00:00-04:00",
        "performer": [
          {
            "reference": "Practitioner/Practitioner-2518",
            "display": "Jane Rosemary Saunders MD"
          }
        ],
        "valueQuantity": {
          "value": 124.85254149162161,
          "unit": "mmHg"
        }
      },
      "request": {
        "method": "PUT",
        "url": "http://localhost:8080/cqf-ruler/baseDstu3/Observation/Observation-143324"
      }
    },
    {
      "fullUrl": "http://localhost:8080/cqf-ruler/baseDstu3/Observation/Observation-143325",
      "resource": {
        "resourceType": "Observation",
        "id": "Observation-143325",
        "status": "final",
        "code": {
          "coding": [
            {
              "system": "http://loinc.org",
              "code": "8453-3",
              "display": "Diastolic Blood Pressure"
            }
          ]
        },
        "subject": {
          "reference": "Patient/Patient-6506",
          "display": "Melinda Stella McCoy"
        },
        "context": {
          "reference": "Encounter/Encounter-894",
          "display": "Windward General Hospital"
        },
        "effectiveDateTime": "1995-07-09T00:00:00-04:00",
        "performer": [
          {
            "reference": "Practitioner/Practitioner-2518",
            "display": "Jane Rosemary Saunders MD"
          }
        ],
        "valueQuantity": {
          "value": 83.65892911688486,
          "unit": "mmHg"
        }
      },
      "request": {
        "method": "PUT",
        "url": "http://localhost:8080/cqf-ruler/baseDstu3/Observation/Observation-143325"
      }
    },
    {
      "fullUrl": "http://localhost:8080/cqf-ruler/baseDstu3/DiagnosticReport/DiagnosticReport-143319",
      "resource": {
        "resourceType": "DiagnosticReport",
        "id": "DiagnosticReport-143319",
        "status": "final",
        "code": {
          "coding": [
            {
              "system": "http://loinc.org",
              "code": "8716-3",
              "display": "Vital Signs Panel"
            }
          ]
        },
        "subject": {
          "reference": "Patient/Patient-6506",
          "display": "Melinda Stella McCoy"
        },
        "context": {
          "reference": "Encounter/Encounter-894",
          "display": "Windward General Hospital"
        },
        "effectivePeriod": {
          "start": "1995-07-09T00:00:00-04:00",
          "end": "1995-07-09T00:00:00-04:00"
        },
        "issued": "1995-07-09T00:00:00.000-04:00",
        "result": [
          {
            "reference": "Observation/Observation-143320",
            "display": "Height"
          },
          {
            "reference": "Observation/Observation-143321",
            "display": "Weight"
          },
          {
            "reference": "Observation/Observation-143322",
            "display": "BMI"
          },
          {
            "reference": "Observation/Observation-143323",
            "display": "Temperature"
          },
          {
            "reference": "Observation/Observation-143324",
            "display": "Systolic Blood Pressure"
          },
          {
            "reference": "Observation/Observation-143325",
            "display": "Diastolic Blood Pressure"
          }
        ]
      },
      "request": {
        "method": "PUT",
        "url": "http://localhost:8080/cqf-ruler/baseDstu3/DiagnosticReport/DiagnosticReport-143319"
      }
    }
  ]
}