{
  "resourceType": "Bundle",
  "id": "Brad-Ray-Stone-Jr-6518-Encounter-728",
  "type": "transaction",
  "entry": [
    {
      "fullUrl": "http://localhost:8080/cqf-ruler/baseDstu3/Encounter/Encounter-728",
      "resource": {
        "resourceType": "Encounter",
        "id": "Encounter-728",
        "meta": {
          "profile": [
            "http://hl7.org/fhir/us/hedis/StructureDefinition/hedis-encounter"
          ]
        },
        "status": "finished",
        "class": {
          "system": "http://hl7.org/fhir/encounter-class",
          "code": "ambulatory",
          "display": "Ambulatory"
        },
        "type": [
          {
            "coding": [
              {
                "system": "http://snomed.info/sct",
                "code": "185345009",
                "display": "Encounter for symptom"
              }
            ]
          }
        ],
        "subject": {
          "reference": "Patient/Patient-6518",
          "display": "Brad Ray Stone Jr"
        },
        "participant": [
          {
            "period": {
              "start": "1994-03-11T06:00:00-05:00",
              "end": "1994-03-11T06:00:00-05:00"
            },
            "individual": {
              "reference": "Practitioner/Practitioner-2529",
              "display": "Stanley Floyd Nielsen MD"
            }
          }
        ],
        "period": {
          "start": "1994-03-11T06:00:00-05:00",
          "end": "1994-03-11T06:00:00-05:00"
        },
        "location": [
          {
            "location": {
              "reference": "Location/Location-1002",
              "display": "Gift of Mercy Hospital"
            }
          }
        ],
        "serviceProvider": {
          "reference": "Organization/Organization-1002",
          "display": "Gift of Mercy Hospital"
        }
      },
      "request": {
        "method": "PUT",
        "url": "http://localhost:8080/cqf-ruler/baseDstu3/Encounter/Encounter-728"
      }
    },
    {
      "fullUrl": "http://localhost:8080/cqf-ruler/baseDstu3/Procedure/Procedure-119429",
      "resource": {
        "resourceType": "Procedure",
        "id": "Procedure-119429",
        "meta": {
          "profile": [
            "http://hl7.org/fhir/us/hedis/StructureDefinition/hedis-procedure"
          ]
        },
        "status": "completed",
        "code": {
          "coding": [
            {
              "system": "http://snomed.info/sct",
              "code": "413473000",
              "display": "Counseling about alcohol consumption (procedure)"
            }
          ]
        },
        "subject": {
          "reference": "Patient/Patient-6518",
          "display": "Brad Ray Stone Jr"
        },
        "context": {
          "reference": "Encounter/Encounter-728",
          "display": "Followup_Encounter"
        },
        "performedPeriod": {
          "start": "1994-03-11T06:00:00-05:00",
          "end": "1994-03-11T06:00:00-05:00"
        },
        "performer": [
          {
            "actor": {
              "reference": "Practitioner/Practitioner-2529",
              "display": "Stanley Floyd Nielsen MD"
            }
          }
        ],
        "location": {
          "reference": "Location/Location-1002",
          "display": "Gift of Mercy Hospital"
        }
      },
      "request": {
        "method": "PUT",
        "url": "http://localhost:8080/cqf-ruler/baseDstu3/Procedure/Procedure-119429"
      }
    },
    {
      "fullUrl": "http://localhost:8080/cqf-ruler/baseDstu3/Observation/Observation-119430",
      "resource": {
        "resourceType": "Observation",
        "id": "Observation-119430",
        "meta": {
          "profile": [
            "http://hl7.org/fhir/us/hedis/StructureDefinition/hedis-observation"
          ]
        },
        "status": "final",
        "code": {
          "coding": [
            {
              "system": "http://www.ama-assn.org/go/cpt",
              "code": "99409",
              "display": "AUDIT/DAST OVER 30 MIN"
            }
          ]
        },
        "subject": {
          "reference": "Patient/Patient-6518",
          "display": "Brad Ray Stone Jr"
        },
        "context": {
          "reference": "Encounter/Encounter-728",
          "display": "Followup_Encounter"
        },
        "effectiveDateTime": "1994-03-11T06:00:00-05:00",
        "performer": [
          {
            "reference": "Practitioner/Practitioner-2529",
            "display": "Stanley Floyd Nielsen MD"
          }
        ],
        "valueString": "Why Not Procedure?"
      },
      "request": {
        "method": "PUT",
        "url": "http://localhost:8080/cqf-ruler/baseDstu3/Observation/Observation-119430"
      }
    },
    {
      "fullUrl": "http://localhost:8080/cqf-ruler/baseDstu3/Observation/Observation-119433",
      "resource": {
        "resourceType": "Observation",
        "id": "Observation-119433",
        "status": "final",
        "code": {
          "coding": [
            {
              "system": "http://loinc.org",
              "code": "8302-2",
              "display": "Height"
            }
          ]
        },
        "subject": {
          "reference": "Patient/Patient-6518",
          "display": "Brad Ray Stone Jr"
        },
        "context": {
          "reference": "Encounter/Encounter-728",
          "display": "Followup_Encounter"
        },
        "effectiveDateTime": "1994-03-11T06:00:00-05:00",
        "performer": [
          {
            "reference": "Practitioner/Practitioner-2529",
            "display": "Stanley Floyd Nielsen MD"
          }
        ],
        "valueQuantity": {
          "value": 181.7,
          "unit": "cm"
        }
      },
      "request": {
        "method": "PUT",
        "url": "http://localhost:8080/cqf-ruler/baseDstu3/Observation/Observation-119433"
      }
    },
    {
      "fullUrl": "http://localhost:8080/cqf-ruler/baseDstu3/Observation/Observation-119434",
      "resource": {
        "resourceType": "Observation",
        "id": "Observation-119434",
        "status": "final",
        "code": {
          "coding": [
            {
              "system": "http://loinc.org",
              "code": "29463-7",
              "display": "Weight"
            }
          ]
        },
        "subject": {
          "reference": "Patient/Patient-6518",
          "display": "Brad Ray Stone Jr"
        },
        "context": {
          "reference": "Encounter/Encounter-728",
          "display": "Followup_Encounter"
        },
        "effectiveDateTime": "1994-03-11T06:00:00-05:00",
        "performer": [
          {
            "reference": "Practitioner/Practitioner-2529",
            "display": "Stanley Floyd Nielsen MD"
          }
        ],
        "valueQuantity": {
          "value": 72.03785491649359,
          "unit": "kg"
        }
      },
      "request": {
        "method": "PUT",
        "url": "http://localhost:8080/cqf-ruler/baseDstu3/Observation/Observation-119434"
      }
    },
    {
      "fullUrl": "http://localhost:8080/cqf-ruler/baseDstu3/Observation/Observation-119435",
      "resource": {
        "resourceType": "Observation",
        "id": "Observation-119435",
        "status": "final",
        "code": {
          "coding": [
            {
              "system": "http://loinc.org",
              "code": "39156-5",
              "display": "BMI"
            }
          ]
        },
        "subject": {
          "reference": "Patient/Patient-6518",
          "display": "Brad Ray Stone Jr"
        },
        "context": {
          "reference": "Encounter/Encounter-728",
          "display": "Followup_Encounter"
        },
        "effectiveDateTime": "1994-03-11T06:00:00-05:00",
        "performer": [
          {
            "reference": "Practitioner/Practitioner-2529",
            "display": "Stanley Floyd Nielsen MD"
          }
        ],
        "valueQuantity": {
          "value": 21.81980764330688,
          "unit": "kg/m2"
        }
      },
      "request": {
        "method": "PUT",
        "url": "http://localhost:8080/cqf-ruler/baseDstu3/Observation/Observation-119435"
      }
    },
    {
      "fullUrl": "http://localhost:8080/cqf-ruler/baseDstu3/Observation/Observation-119436",
      "resource": {
        "resourceType": "Observation",
        "id": "Observation-119436",
        "status": "final",
        "code": {
          "coding": [
            {
              "system": "http://loinc.org",
              "code": "8310-5",
              "display": "Temperature"
            }
          ]
        },
        "subject": {
          "reference": "Patient/Patient-6518",
          "display": "Brad Ray Stone Jr"
        },
        "context": {
          "reference": "Encounter/Encounter-728",
          "display": "Followup_Encounter"
        },
        "effectiveDateTime": "1994-03-11T06:00:00-05:00",
        "performer": [
          {
            "reference": "Practitioner/Practitioner-2529",
            "display": "Stanley Floyd Nielsen MD"
          }
        ],
        "valueQuantity": {
          "value": 37.0,
          "unit": "C"
        }
      },
      "request": {
        "method": "PUT",
        "url": "http://localhost:8080/cqf-ruler/baseDstu3/Observation/Observation-119436"
      }
    },
    {
      "fullUrl": "http://localhost:8080/cqf-ruler/baseDstu3/Observation/Observation-119437",
      "resource": {
        "resourceType": "Observation",
        "id": "Observation-119437",
        "status": "final",
        "code": {
          "coding": [
            {
              "system": "http://loinc.org",
              "code": "8459-0",
              "display": "Systolic Blood Pressure"
            }
          ]
        },
        "subject": {
          "reference": "Patient/Patient-6518",
          "display": "Brad Ray Stone Jr"
        },
        "context": {
          "reference": "Encounter/Encounter-728",
          "display": "Followup_Encounter"
        },
        "effectiveDateTime": "1994-03-11T06:00:00-05:00",
        "performer": [
          {
            "reference": "Practitioner/Practitioner-2529",
            "display": "Stanley Floyd Nielsen MD"
          }
        ],
        "valueQuantity": {
          "value": 144.12520952926826,
          "unit": "mmHg"
        }
      },
      "request": {
        "method": "PUT",
        "url": "http://localhost:8080/cqf-ruler/baseDstu3/Observation/Observation-119437"
      }
    },
    {
      "fullUrl": "http://localhost:8080/cqf-ruler/baseDstu3/Observation/Observation-119438",
      "resource": {
        "resourceType": "Observation",
        "id": "Observation-119438",
        "status": "final",
        "code": {
          "coding": [
            {
              "system": "http://loinc.org",
              "code": "8453-3",
              "display": "Diastolic Blood Pressure"
            }
          ]
        },
        "subject": {
          "reference": "Patient/Patient-6518",
          "display": "Brad Ray Stone Jr"
        },
        "context": {
          "reference": "Encounter/Encounter-728",
          "display": "Followup_Encounter"
        },
        "effectiveDateTime": "1994-03-11T06:00:00-05:00",
        "performer": [
          {
            "reference": "Practitioner/Practitioner-2529",
            "display": "Stanley Floyd Nielsen MD"
          }
        ],
        "valueQuantity": {
          "value": 71.6235233900668,
          "unit": "mmHg"
        }
      },
      "request": {
        "method": "PUT",
        "url": "http://localhost:8080/cqf-ruler/baseDstu3/Observation/Observation-119438"
      }
    },
    {
      "fullUrl": "http://localhost:8080/cqf-ruler/baseDstu3/DiagnosticReport/DiagnosticReport-119432",
      "resource": {
        "resourceType": "DiagnosticReport",
        "id": "DiagnosticReport-119432",
        "meta": {
          "profile": [
            "http://hl7.org/fhir/us/hedis/StructureDefinition/hedis-diagnosticreport"
          ]
        },
        "status": "final",
        "category": {
          "coding": [
            {
              "system": "http://hl7.org/fhir/ValueSet/diagnostic-service-sections",
              "code": "LAB",
              "display": "Laboratory"
            }
          ]
        },
        "code": {
          "coding": [
            {
              "system": "http://loinc.org",
              "code": "8716-3",
              "display": "Vital Signs Panel"
            }
          ]
        },
        "subject": {
          "reference": "Patient/Patient-6518",
          "display": "Brad Ray Stone Jr"
        },
        "context": {
          "reference": "Encounter/Encounter-728",
          "display": "Followup_Encounter"
        },
        "effectivePeriod": {
          "start": "1994-03-11T06:00:00-05:00",
          "end": "1994-03-11T06:00:00-05:00"
        },
        "issued": "1994-03-11T06:00:00.000-05:00",
        "result": [
          {
            "reference": "Observation/Observation-119433",
            "display": "Height"
          },
          {
            "reference": "Observation/Observation-119434",
            "display": "Weight"
          },
          {
            "reference": "Observation/Observation-119435",
            "display": "BMI"
          },
          {
            "reference": "Observation/Observation-119436",
            "display": "Temperature"
          },
          {
            "reference": "Observation/Observation-119437",
            "display": "Systolic Blood Pressure"
          },
          {
            "reference": "Observation/Observation-119438",
            "display": "Diastolic Blood Pressure"
          }
        ]
      },
      "request": {
        "method": "PUT",
        "url": "http://localhost:8080/cqf-ruler/baseDstu3/DiagnosticReport/DiagnosticReport-119432"
      }
    }
  ]
}