{
  "resourceType": "Bundle",
  "id": "Brad-Ray-Stone-Jr-6518-Encounter-3645",
  "type": "transaction",
  "entry": [
    {
      "fullUrl": "http://localhost:8080/cqf-ruler/baseDstu3/Encounter/Encounter-3645",
      "resource": {
        "resourceType": "Encounter",
        "id": "Encounter-3645",
        "meta": {
          "profile": [
            "http://hl7.org/fhir/us/hedis/StructureDefinition/hedis-encounter"
          ]
        },
        "status": "finished",
        "class": {
          "system": "http://hl7.org/fhir/encounter-class",
          "code": "outpatient",
          "display": "Outpatient"
        },
        "type": [
          {
            "coding": [
              {
                "system": "http://snomed.info/sct",
                "code": "185345009",
                "display": "Encounter for symptom"
              }
            ]
          }
        ],
        "subject": {
          "reference": "Patient/Patient-6518",
          "display": "Brad Ray Stone Jr"
        },
        "participant": [
          {
            "period": {
              "start": "2017-03-31T01:00:00-04:00",
              "end": "2017-03-31T01:00:00-04:00"
            },
            "individual": {
              "reference": "Practitioner/Practitioner-2535",
              "display": "Clifton Terrence Carey MD"
            }
          }
        ],
        "period": {
          "start": "2017-03-31T01:00:00-04:00",
          "end": "2017-03-31T01:00:00-04:00"
        },
        "location": [
          {
            "location": {
              "reference": "Location/Location-1102",
              "display": "Pediatric and Adult Medicine"
            }
          }
        ],
        "serviceProvider": {
          "reference": "Organization/Organization-1102",
          "display": "Pediatric and Adult Medicine"
        }
      },
      "request": {
        "method": "PUT",
        "url": "http://localhost:8080/cqf-ruler/baseDstu3/Encounter/Encounter-3645"
      }
    },
    {
      "fullUrl": "http://localhost:8080/cqf-ruler/baseDstu3/Observation/Observation-668362",
      "resource": {
        "resourceType": "Observation",
        "id": "Observation-668362",
        "meta": {
          "profile": [
            "http://hl7.org/fhir/us/hedis/StructureDefinition/hedis-observation"
          ]
        },
        "status": "final",
        "code": {
          "coding": [
            {
              "system": "https://www.cms.gov/Medicare/Coding/MedHCPCSGenInfo",
              "code": "G8510",
              "display": "Screening for depression is documented as negative, a follow-up plan is not required (G8510)"
            }
          ]
        },
        "subject": {
          "reference": "Patient/Patient-6518",
          "display": "Brad Ray Stone Jr"
        },
        "context": {
          "reference": "Encounter/Encounter-3645",
          "display": "Wellness_Encounter"
        },
        "effectiveDateTime": "2017-03-31T01:00:00-04:00",
        "performer": [
          {
            "reference": "Practitioner/Practitioner-2535",
            "display": "Clifton Terrence Carey MD"
          }
        ],
        "valueString": "NEGATIVE"
      },
      "request": {
        "method": "PUT",
        "url": "http://localhost:8080/cqf-ruler/baseDstu3/Observation/Observation-668362"
      }
    },
    {
      "fullUrl": "http://localhost:8080/cqf-ruler/baseDstu3/Observation/Observation-672175",
      "resource": {
        "resourceType": "Observation",
        "id": "Observation-672175",
        "status": "final",
        "code": {
          "coding": [
            {
              "system": "http://loinc.org",
              "code": "8302-2",
              "display": "Height"
            }
          ]
        },
        "subject": {
          "reference": "Patient/Patient-6518",
          "display": "Brad Ray Stone Jr"
        },
        "context": {
          "reference": "Encounter/Encounter-3645",
          "display": "Wellness_Encounter"
        },
        "effectiveDateTime": "2017-03-31T01:00:00-04:00",
        "performer": [
          {
            "reference": "Practitioner/Practitioner-2535",
            "display": "Clifton Terrence Carey MD"
          }
        ],
        "valueQuantity": {
          "value": 181.7,
          "unit": "cm"
        }
      },
      "request": {
        "method": "PUT",
        "url": "http://localhost:8080/cqf-ruler/baseDstu3/Observation/Observation-672175"
      }
    },
    {
      "fullUrl": "http://localhost:8080/cqf-ruler/baseDstu3/Observation/Observation-672176",
      "resource": {
        "resourceType": "Observation",
        "id": "Observation-672176",
        "status": "final",
        "code": {
          "coding": [
            {
              "system": "http://loinc.org",
              "code": "29463-7",
              "display": "Weight"
            }
          ]
        },
        "subject": {
          "reference": "Patient/Patient-6518",
          "display": "Brad Ray Stone Jr"
        },
        "context": {
          "reference": "Encounter/Encounter-3645",
          "display": "Wellness_Encounter"
        },
        "effectiveDateTime": "2017-03-31T01:00:00-04:00",
        "performer": [
          {
            "reference": "Practitioner/Practitioner-2535",
            "display": "Clifton Terrence Carey MD"
          }
        ],
        "valueQuantity": {
          "value": 85.50560604413245,
          "unit": "kg"
        }
      },
      "request": {
        "method": "PUT",
        "url": "http://localhost:8080/cqf-ruler/baseDstu3/Observation/Observation-672176"
      }
    },
    {
      "fullUrl": "http://localhost:8080/cqf-ruler/baseDstu3/Observation/Observation-672177",
      "resource": {
        "resourceType": "Observation",
        "id": "Observation-672177",
        "status": "final",
        "code": {
          "coding": [
            {
              "system": "http://loinc.org",
              "code": "39156-5",
              "display": "BMI"
            }
          ]
        },
        "subject": {
          "reference": "Patient/Patient-6518",
          "display": "Brad Ray Stone Jr"
        },
        "context": {
          "reference": "Encounter/Encounter-3645",
          "display": "Wellness_Encounter"
        },
        "effectiveDateTime": "2017-03-31T01:00:00-04:00",
        "performer": [
          {
            "reference": "Practitioner/Practitioner-2535",
            "display": "Clifton Terrence Carey MD"
          }
        ],
        "valueQuantity": {
          "value": 25.899103720815805,
          "unit": "kg/m2"
        }
      },
      "request": {
        "method": "PUT",
        "url": "http://localhost:8080/cqf-ruler/baseDstu3/Observation/Observation-672177"
      }
    },
    {
      "fullUrl": "http://localhost:8080/cqf-ruler/baseDstu3/Observation/Observation-672178",
      "resource": {
        "resourceType": "Observation",
        "id": "Observation-672178",
        "status": "final",
        "code": {
          "coding": [
            {
              "system": "http://loinc.org",
              "code": "8310-5",
              "display": "Temperature"
            }
          ]
        },
        "subject": {
          "reference": "Patient/Patient-6518",
          "display": "Brad Ray Stone Jr"
        },
        "context": {
          "reference": "Encounter/Encounter-3645",
          "display": "Wellness_Encounter"
        },
        "effectiveDateTime": "2017-03-31T01:00:00-04:00",
        "performer": [
          {
            "reference": "Practitioner/Practitioner-2535",
            "display": "Clifton Terrence Carey MD"
          }
        ],
        "valueQuantity": {
          "value": 37.0,
          "unit": "C"
        }
      },
      "request": {
        "method": "PUT",
        "url": "http://localhost:8080/cqf-ruler/baseDstu3/Observation/Observation-672178"
      }
    },
    {
      "fullUrl": "http://localhost:8080/cqf-ruler/baseDstu3/Observation/Observation-672179",
      "resource": {
        "resourceType": "Observation",
        "id": "Observation-672179",
        "status": "final",
        "code": {
          "coding": [
            {
              "system": "http://loinc.org",
              "code": "8459-0",
              "display": "Systolic Blood Pressure"
            }
          ]
        },
        "subject": {
          "reference": "Patient/Patient-6518",
          "display": "Brad Ray Stone Jr"
        },
        "context": {
          "reference": "Encounter/Encounter-3645",
          "display": "Wellness_Encounter"
        },
        "effectiveDateTime": "2017-03-31T01:00:00-04:00",
        "performer": [
          {
            "reference": "Practitioner/Practitioner-2535",
            "display": "Clifton Terrence Carey MD"
          }
        ],
        "valueQuantity": {
          "value": 103.667768136565,
          "unit": "mmHg"
        }
      },
      "request": {
        "method": "PUT",
        "url": "http://localhost:8080/cqf-ruler/baseDstu3/Observation/Observation-672179"
      }
    },
    {
      "fullUrl": "http://localhost:8080/cqf-ruler/baseDstu3/Observation/Observation-672180",
      "resource": {
        "resourceType": "Observation",
        "id": "Observation-672180",
        "status": "final",
        "code": {
          "coding": [
            {
              "system": "http://loinc.org",
              "code": "8453-3",
              "display": "Diastolic Blood Pressure"
            }
          ]
        },
        "subject": {
          "reference": "Patient/Patient-6518",
          "display": "Brad Ray Stone Jr"
        },
        "context": {
          "reference": "Encounter/Encounter-3645",
          "display": "Wellness_Encounter"
        },
        "effectiveDateTime": "2017-03-31T01:00:00-04:00",
        "performer": [
          {
            "reference": "Practitioner/Practitioner-2535",
            "display": "Clifton Terrence Carey MD"
          }
        ],
        "valueQuantity": {
          "value": 78.01859496870154,
          "unit": "mmHg"
        }
      },
      "request": {
        "method": "PUT",
        "url": "http://localhost:8080/cqf-ruler/baseDstu3/Observation/Observation-672180"
      }
    },
    {
      "fullUrl": "http://localhost:8080/cqf-ruler/baseDstu3/DiagnosticReport/DiagnosticReport-672174",
      "resource": {
        "resourceType": "DiagnosticReport",
        "id": "DiagnosticReport-672174",
        "meta": {
          "profile": [
            "http://hl7.org/fhir/us/hedis/StructureDefinition/hedis-diagnosticreport"
          ]
        },
        "status": "final",
        "category": {
          "coding": [
            {
              "system": "http://hl7.org/fhir/ValueSet/diagnostic-service-sections",
              "code": "LAB",
              "display": "Laboratory"
            }
          ]
        },
        "code": {
          "coding": [
            {
              "system": "http://loinc.org",
              "code": "8716-3",
              "display": "Vital Signs Panel"
            }
          ]
        },
        "subject": {
          "reference": "Patient/Patient-6518",
          "display": "Brad Ray Stone Jr"
        },
        "context": {
          "reference": "Encounter/Encounter-3645",
          "display": "Wellness_Encounter"
        },
        "effectivePeriod": {
          "start": "2017-03-31T01:00:00-04:00",
          "end": "2017-03-31T01:00:00-04:00"
        },
        "issued": "2017-03-31T01:00:00.000-04:00",
        "result": [
          {
            "reference": "Observation/Observation-672175",
            "display": "Height"
          },
          {
            "reference": "Observation/Observation-672176",
            "display": "Weight"
          },
          {
            "reference": "Observation/Observation-672177",
            "display": "BMI"
          },
          {
            "reference": "Observation/Observation-672178",
            "display": "Temperature"
          },
          {
            "reference": "Observation/Observation-672179",
            "display": "Systolic Blood Pressure"
          },
          {
            "reference": "Observation/Observation-672180",
            "display": "Diastolic Blood Pressure"
          }
        ]
      },
      "request": {
        "method": "PUT",
        "url": "http://localhost:8080/cqf-ruler/baseDstu3/DiagnosticReport/DiagnosticReport-672174"
      }
    }
  ]
}