{
  "resourceType": "Bundle",
  "id": "Brad-Ray-Stone-Jr-6518-Encounter-4278",
  "type": "transaction",
  "entry": [
    {
      "fullUrl": "http://localhost:8080/cqf-ruler/baseDstu3/Encounter/Encounter-4278",
      "resource": {
        "resourceType": "Encounter",
        "id": "Encounter-4278",
        "meta": {
          "profile": [
            "http://hl7.org/fhir/us/hedis/StructureDefinition/hedis-encounter"
          ]
        },
        "status": "finished",
        "class": {
          "system": "http://hl7.org/fhir/encounter-class",
          "code": "outpatient",
          "display": "Outpatient"
        },
        "type": [
          {
            "coding": [
              {
                "system": "http://snomed.info/sct",
                "code": "185345009",
                "display": "Encounter for symptom"
              }
            ]
          }
        ],
        "subject": {
          "reference": "Patient/Patient-6518",
          "display": "Brad Ray Stone Jr"
        },
        "participant": [
          {
            "period": {
              "start": "2017-09-15T01:00:00-04:00",
              "end": "2017-09-15T01:00:00-04:00"
            },
            "individual": {
              "reference": "Practitioner/Practitioner-2535",
              "display": "Clifton Terrence Carey MD"
            }
          }
        ],
        "period": {
          "start": "2017-09-15T01:00:00-04:00",
          "end": "2017-09-15T01:00:00-04:00"
        },
        "location": [
          {
            "location": {
              "reference": "Location/Location-1102",
              "display": "Pediatric and Adult Medicine"
            }
          }
        ],
        "serviceProvider": {
          "reference": "Organization/Organization-1102",
          "display": "Pediatric and Adult Medicine"
        }
      },
      "request": {
        "method": "PUT",
        "url": "http://localhost:8080/cqf-ruler/baseDstu3/Encounter/Encounter-4278"
      }
    },
    {
      "fullUrl": "http://localhost:8080/cqf-ruler/baseDstu3/Observation/Observation-689984",
      "resource": {
        "resourceType": "Observation",
        "id": "Observation-689984",
        "meta": {
          "profile": [
            "http://hl7.org/fhir/us/hedis/StructureDefinition/hedis-observation"
          ]
        },
        "status": "final",
        "code": {
          "coding": [
            {
              "system": "https://www.cms.gov/Medicare/Coding/MedHCPCSGenInfo",
              "code": "G8510",
              "display": "Screening for depression is documented as negative, a follow-up plan is not required (G8510)"
            }
          ]
        },
        "subject": {
          "reference": "Patient/Patient-6518",
          "display": "Brad Ray Stone Jr"
        },
        "context": {
          "reference": "Encounter/Encounter-4278",
          "display": "Wellness_Encounter"
        },
        "effectiveDateTime": "2017-09-15T01:00:00-04:00",
        "performer": [
          {
            "reference": "Practitioner/Practitioner-2535",
            "display": "Clifton Terrence Carey MD"
          }
        ],
        "valueString": "NEGATIVE"
      },
      "request": {
        "method": "PUT",
        "url": "http://localhost:8080/cqf-ruler/baseDstu3/Observation/Observation-689984"
      }
    },
    {
      "fullUrl": "http://localhost:8080/cqf-ruler/baseDstu3/Observation/Observation-693729",
      "resource": {
        "resourceType": "Observation",
        "id": "Observation-693729",
        "status": "final",
        "code": {
          "coding": [
            {
              "system": "http://loinc.org",
              "code": "8302-2",
              "display": "Height"
            }
          ]
        },
        "subject": {
          "reference": "Patient/Patient-6518",
          "display": "Brad Ray Stone Jr"
        },
        "context": {
          "reference": "Encounter/Encounter-4278",
          "display": "Wellness_Encounter"
        },
        "effectiveDateTime": "2017-09-15T01:00:00-04:00",
        "performer": [
          {
            "reference": "Practitioner/Practitioner-2535",
            "display": "Clifton Terrence Carey MD"
          }
        ],
        "valueQuantity": {
          "value": 181.7,
          "unit": "cm"
        }
      },
      "request": {
        "method": "PUT",
        "url": "http://localhost:8080/cqf-ruler/baseDstu3/Observation/Observation-693729"
      }
    },
    {
      "fullUrl": "http://localhost:8080/cqf-ruler/baseDstu3/Observation/Observation-693730",
      "resource": {
        "resourceType": "Observation",
        "id": "Observation-693730",
        "status": "final",
        "code": {
          "coding": [
            {
              "system": "http://loinc.org",
              "code": "29463-7",
              "display": "Weight"
            }
          ]
        },
        "subject": {
          "reference": "Patient/Patient-6518",
          "display": "Brad Ray Stone Jr"
        },
        "context": {
          "reference": "Encounter/Encounter-4278",
          "display": "Wellness_Encounter"
        },
        "effectiveDateTime": "2017-09-15T01:00:00-04:00",
        "performer": [
          {
            "reference": "Practitioner/Practitioner-2535",
            "display": "Clifton Terrence Carey MD"
          }
        ],
        "valueQuantity": {
          "value": 85.78090560131213,
          "unit": "kg"
        }
      },
      "request": {
        "method": "PUT",
        "url": "http://localhost:8080/cqf-ruler/baseDstu3/Observation/Observation-693730"
      }
    },
    {
      "fullUrl": "http://localhost:8080/cqf-ruler/baseDstu3/Observation/Observation-693731",
      "resource": {
        "resourceType": "Observation",
        "id": "Observation-693731",
        "status": "final",
        "code": {
          "coding": [
            {
              "system": "http://loinc.org",
              "code": "39156-5",
              "display": "BMI"
            }
          ]
        },
        "subject": {
          "reference": "Patient/Patient-6518",
          "display": "Brad Ray Stone Jr"
        },
        "context": {
          "reference": "Encounter/Encounter-4278",
          "display": "Wellness_Encounter"
        },
        "effectiveDateTime": "2017-09-15T01:00:00-04:00",
        "performer": [
          {
            "reference": "Practitioner/Practitioner-2535",
            "display": "Clifton Terrence Carey MD"
          }
        ],
        "valueQuantity": {
          "value": 25.98249020406009,
          "unit": "kg/m2"
        }
      },
      "request": {
        "method": "PUT",
        "url": "http://localhost:8080/cqf-ruler/baseDstu3/Observation/Observation-693731"
      }
    },
    {
      "fullUrl": "http://localhost:8080/cqf-ruler/baseDstu3/Observation/Observation-693732",
      "resource": {
        "resourceType": "Observation",
        "id": "Observation-693732",
        "status": "final",
        "code": {
          "coding": [
            {
              "system": "http://loinc.org",
              "code": "8310-5",
              "display": "Temperature"
            }
          ]
        },
        "subject": {
          "reference": "Patient/Patient-6518",
          "display": "Brad Ray Stone Jr"
        },
        "context": {
          "reference": "Encounter/Encounter-4278",
          "display": "Wellness_Encounter"
        },
        "effectiveDateTime": "2017-09-15T01:00:00-04:00",
        "performer": [
          {
            "reference": "Practitioner/Practitioner-2535",
            "display": "Clifton Terrence Carey MD"
          }
        ],
        "valueQuantity": {
          "value": 37.0,
          "unit": "C"
        }
      },
      "request": {
        "method": "PUT",
        "url": "http://localhost:8080/cqf-ruler/baseDstu3/Observation/Observation-693732"
      }
    },
    {
      "fullUrl": "http://localhost:8080/cqf-ruler/baseDstu3/Observation/Observation-693733",
      "resource": {
        "resourceType": "Observation",
        "id": "Observation-693733",
        "status": "final",
        "code": {
          "coding": [
            {
              "system": "http://loinc.org",
              "code": "8459-0",
              "display": "Systolic Blood Pressure"
            }
          ]
        },
        "subject": {
          "reference": "Patient/Patient-6518",
          "display": "Brad Ray Stone Jr"
        },
        "context": {
          "reference": "Encounter/Encounter-4278",
          "display": "Wellness_Encounter"
        },
        "effectiveDateTime": "2017-09-15T01:00:00-04:00",
        "performer": [
          {
            "reference": "Practitioner/Practitioner-2535",
            "display": "Clifton Terrence Carey MD"
          }
        ],
        "valueQuantity": {
          "value": 103.73152942583506,
          "unit": "mmHg"
        }
      },
      "request": {
        "method": "PUT",
        "url": "http://localhost:8080/cqf-ruler/baseDstu3/Observation/Observation-693733"
      }
    },
    {
      "fullUrl": "http://localhost:8080/cqf-ruler/baseDstu3/Observation/Observation-693734",
      "resource": {
        "resourceType": "Observation",
        "id": "Observation-693734",
        "status": "final",
        "code": {
          "coding": [
            {
              "system": "http://loinc.org",
              "code": "8453-3",
              "display": "Diastolic Blood Pressure"
            }
          ]
        },
        "subject": {
          "reference": "Patient/Patient-6518",
          "display": "Brad Ray Stone Jr"
        },
        "context": {
          "reference": "Encounter/Encounter-4278",
          "display": "Wellness_Encounter"
        },
        "effectiveDateTime": "2017-09-15T01:00:00-04:00",
        "performer": [
          {
            "reference": "Practitioner/Practitioner-2535",
            "display": "Clifton Terrence Carey MD"
          }
        ],
        "valueQuantity": {
          "value": 78.15517351611525,
          "unit": "mmHg"
        }
      },
      "request": {
        "method": "PUT",
        "url": "http://localhost:8080/cqf-ruler/baseDstu3/Observation/Observation-693734"
      }
    },
    {
      "fullUrl": "http://localhost:8080/cqf-ruler/baseDstu3/DiagnosticReport/DiagnosticReport-693728",
      "resource": {
        "resourceType": "DiagnosticReport",
        "id": "DiagnosticReport-693728",
        "meta": {
          "profile": [
            "http://hl7.org/fhir/us/hedis/StructureDefinition/hedis-diagnosticreport"
          ]
        },
        "status": "final",
        "category": {
          "coding": [
            {
              "system": "http://hl7.org/fhir/ValueSet/diagnostic-service-sections",
              "code": "LAB",
              "display": "Laboratory"
            }
          ]
        },
        "code": {
          "coding": [
            {
              "system": "http://loinc.org",
              "code": "8716-3",
              "display": "Vital Signs Panel"
            }
          ]
        },
        "subject": {
          "reference": "Patient/Patient-6518",
          "display": "Brad Ray Stone Jr"
        },
        "context": {
          "reference": "Encounter/Encounter-4278",
          "display": "Wellness_Encounter"
        },
        "effectivePeriod": {
          "start": "2017-09-15T01:00:00-04:00",
          "end": "2017-09-15T01:00:00-04:00"
        },
        "issued": "2017-09-15T01:00:00.000-04:00",
        "result": [
          {
            "reference": "Observation/Observation-693729",
            "display": "Height"
          },
          {
            "reference": "Observation/Observation-693730",
            "display": "Weight"
          },
          {
            "reference": "Observation/Observation-693731",
            "display": "BMI"
          },
          {
            "reference": "Observation/Observation-693732",
            "display": "Temperature"
          },
          {
            "reference": "Observation/Observation-693733",
            "display": "Systolic Blood Pressure"
          },
          {
            "reference": "Observation/Observation-693734",
            "display": "Diastolic Blood Pressure"
          }
        ]
      },
      "request": {
        "method": "PUT",
        "url": "http://localhost:8080/cqf-ruler/baseDstu3/DiagnosticReport/DiagnosticReport-693728"
      }
    }
  ]
}