{
  "resourceType": "Bundle",
  "id": "Jared Gentry Baldwin-6513-Encounter-609",
  "type": "transaction",
  "entry": [
    {
      "fullUrl": "http://localhost:8080/cqf-ruler/baseDstu3/Encounter/Encounter-609",
      "resource": {
        "resourceType": "Encounter",
        "id": "Encounter-609",
        "status": "finished",
        "class": {
          "system": "http://hl7.org/fhir/encounter-class",
          "code": "outpatient",
          "display": "Inpatient"
        },
        "subject": {
          "reference": "Patient/Patient-6513",
          "display": "Jared Gentry Baldwin"
        },
        "participant": [
          {
            "period": {
              "start": "1992-01-12T10:00:00-05:00",
              "end": "1992-01-12T10:00:00-05:00"
            },
            "individual": {
              "reference": "Practitioner/Practitioner-2530",
              "display": "Terrence Ramirez McCormick MD"
            }
          }
        ],
        "period": {
          "start": "1992-01-12T10:00:00-05:00",
          "end": "1992-01-12T10:00:00-05:00"
        },
        "location": [
          {
            "location": {
              "reference": "Location/Location-1103",
              "display": "Acme Medical Center"
            }
          }
        ],
        "serviceProvider": {
          "reference": "Organization/Organization-1103",
          "display": "Acme Medical Center"
        }
      },
      "request": {
        "method": "PUT",
        "url": "http://localhost:8080/cqf-ruler/baseDstu3/Encounter/Encounter-609"
      }
    },
    {
      "fullUrl": "http://localhost:8080/cqf-ruler/baseDstu3/Observation/Observation-75042",
      "resource": {
        "resourceType": "Observation",
        "id": "Observation-75042",
        "status": "final",
        "code": {
          "coding": [
            {
              "system": "http://loinc.org",
              "code": "8302-2",
              "display": "Height"
            }
          ]
        },
        "subject": {
          "reference": "Patient/Patient-6513",
          "display": "Jared Gentry Baldwin"
        },
        "context": {
          "reference": "Encounter/Encounter-609",
          "display": "Acme Medical Center"
        },
        "effectiveDateTime": "1992-01-12T10:00:00-05:00",
        "performer": [
          {
            "reference": "Practitioner/Practitioner-2530",
            "display": "Terrence Ramirez McCormick MD"
          }
        ],
        "valueQuantity": {
          "value": 0.0,
          "unit": "cm"
        }
      },
      "request": {
        "method": "PUT",
        "url": "http://localhost:8080/cqf-ruler/baseDstu3/Observation/Observation-75042"
      }
    },
    {
      "fullUrl": "http://localhost:8080/cqf-ruler/baseDstu3/Observation/Observation-75043",
      "resource": {
        "resourceType": "Observation",
        "id": "Observation-75043",
        "status": "final",
        "code": {
          "coding": [
            {
              "system": "http://loinc.org",
              "code": "29463-7",
              "display": "Weight"
            }
          ]
        },
        "subject": {
          "reference": "Patient/Patient-6513",
          "display": "Jared Gentry Baldwin"
        },
        "context": {
          "reference": "Encounter/Encounter-609",
          "display": "Acme Medical Center"
        },
        "effectiveDateTime": "1992-01-12T10:00:00-05:00",
        "performer": [
          {
            "reference": "Practitioner/Practitioner-2530",
            "display": "Terrence Ramirez McCormick MD"
          }
        ],
        "valueQuantity": {
          "value": 0.0,
          "unit": "kg"
        }
      },
      "request": {
        "method": "PUT",
        "url": "http://localhost:8080/cqf-ruler/baseDstu3/Observation/Observation-75043"
      }
    },
    {
      "fullUrl": "http://localhost:8080/cqf-ruler/baseDstu3/Observation/Observation-75044",
      "resource": {
        "resourceType": "Observation",
        "id": "Observation-75044",
        "status": "final",
        "code": {
          "coding": [
            {
              "system": "http://loinc.org",
              "code": "39156-5",
              "display": "BMI"
            }
          ]
        },
        "subject": {
          "reference": "Patient/Patient-6513",
          "display": "Jared Gentry Baldwin"
        },
        "context": {
          "reference": "Encounter/Encounter-609",
          "display": "Acme Medical Center"
        },
        "effectiveDateTime": "1992-01-12T10:00:00-05:00",
        "performer": [
          {
            "reference": "Practitioner/Practitioner-2530",
            "display": "Terrence Ramirez McCormick MD"
          }
        ],
        "valueQuantity": {
          "value": 0.0,
          "unit": "kg/m2"
        }
      },
      "request": {
        "method": "PUT",
        "url": "http://localhost:8080/cqf-ruler/baseDstu3/Observation/Observation-75044"
      }
    },
    {
      "fullUrl": "http://localhost:8080/cqf-ruler/baseDstu3/Observation/Observation-75045",
      "resource": {
        "resourceType": "Observation",
        "id": "Observation-75045",
        "status": "final",
        "code": {
          "coding": [
            {
              "system": "http://loinc.org",
              "code": "8310-5",
              "display": "Temperature"
            }
          ]
        },
        "subject": {
          "reference": "Patient/Patient-6513",
          "display": "Jared Gentry Baldwin"
        },
        "context": {
          "reference": "Encounter/Encounter-609",
          "display": "Acme Medical Center"
        },
        "effectiveDateTime": "1992-01-12T10:00:00-05:00",
        "performer": [
          {
            "reference": "Practitioner/Practitioner-2530",
            "display": "Terrence Ramirez McCormick MD"
          }
        ],
        "valueQuantity": {
          "value": 37.0,
          "unit": "C"
        }
      },
      "request": {
        "method": "PUT",
        "url": "http://localhost:8080/cqf-ruler/baseDstu3/Observation/Observation-75045"
      }
    },
    {
      "fullUrl": "http://localhost:8080/cqf-ruler/baseDstu3/Observation/Observation-75046",
      "resource": {
        "resourceType": "Observation",
        "id": "Observation-75046",
        "status": "final",
        "code": {
          "coding": [
            {
              "system": "http://loinc.org",
              "code": "8459-0",
              "display": "Systolic Blood Pressure"
            }
          ]
        },
        "subject": {
          "reference": "Patient/Patient-6513",
          "display": "Jared Gentry Baldwin"
        },
        "context": {
          "reference": "Encounter/Encounter-609",
          "display": "Acme Medical Center"
        },
        "effectiveDateTime": "1992-01-12T10:00:00-05:00",
        "performer": [
          {
            "reference": "Practitioner/Practitioner-2530",
            "display": "Terrence Ramirez McCormick MD"
          }
        ],
        "valueQuantity": {
          "value": 127.5114010275155,
          "unit": "mmHg"
        }
      },
      "request": {
        "method": "PUT",
        "url": "http://localhost:8080/cqf-ruler/baseDstu3/Observation/Observation-75046"
      }
    },
    {
      "fullUrl": "http://localhost:8080/cqf-ruler/baseDstu3/Observation/Observation-75047",
      "resource": {
        "resourceType": "Observation",
        "id": "Observation-75047",
        "status": "final",
        "code": {
          "coding": [
            {
              "system": "http://loinc.org",
              "code": "8453-3",
              "display": "Diastolic Blood Pressure"
            }
          ]
        },
        "subject": {
          "reference": "Patient/Patient-6513",
          "display": "Jared Gentry Baldwin"
        },
        "context": {
          "reference": "Encounter/Encounter-609",
          "display": "Acme Medical Center"
        },
        "effectiveDateTime": "1992-01-12T10:00:00-05:00",
        "performer": [
          {
            "reference": "Practitioner/Practitioner-2530",
            "display": "Terrence Ramirez McCormick MD"
          }
        ],
        "valueQuantity": {
          "value": 81.74227357538065,
          "unit": "mmHg"
        }
      },
      "request": {
        "method": "PUT",
        "url": "http://localhost:8080/cqf-ruler/baseDstu3/Observation/Observation-75047"
      }
    },
    {
      "fullUrl": "http://localhost:8080/cqf-ruler/baseDstu3/DiagnosticReport/DiagnosticReport-75041",
      "resource": {
        "resourceType": "DiagnosticReport",
        "id": "DiagnosticReport-75041",
        "status": "final",
        "code": {
          "coding": [
            {
              "system": "http://loinc.org",
              "code": "8716-3",
              "display": "Vital Signs Panel"
            }
          ]
        },
        "subject": {
          "reference": "Patient/Patient-6513",
          "display": "Jared Gentry Baldwin"
        },
        "context": {
          "reference": "Encounter/Encounter-609",
          "display": "Acme Medical Center"
        },
        "effectivePeriod": {
          "start": "1992-01-12T10:00:00-05:00",
          "end": "1992-01-12T10:00:00-05:00"
        },
        "issued": "1992-01-12T10:00:00.000-05:00",
        "result": [
          {
            "reference": "Observation/Observation-75042",
            "display": "Height"
          },
          {
            "reference": "Observation/Observation-75043",
            "display": "Weight"
          },
          {
            "reference": "Observation/Observation-75044",
            "display": "BMI"
          },
          {
            "reference": "Observation/Observation-75045",
            "display": "Temperature"
          },
          {
            "reference": "Observation/Observation-75046",
            "display": "Systolic Blood Pressure"
          },
          {
            "reference": "Observation/Observation-75047",
            "display": "Diastolic Blood Pressure"
          }
        ]
      },
      "request": {
        "method": "PUT",
        "url": "http://localhost:8080/cqf-ruler/baseDstu3/DiagnosticReport/DiagnosticReport-75041"
      }
    }
  ]
}