{
  "resourceType": "Bundle",
  "id": "Jared-Gentry-Baldwin-6513-Encounter-645",
  "type": "transaction",
  "entry": [
    {
      "fullUrl": "http://localhost:8080/cqf-ruler/baseDstu3Encounter/Encounter-645",
      "resource": {
        "resourceType": "Encounter",
        "id": "Encounter-645",
        "status": "finished",
        "class": {
          "system": "http://hl7.org/fhir/encounter-class",
          "code": "outpatient",
          "display": "Inpatient"
        },
        "subject": {
          "reference": "Patient/Patient-6513",
          "display": "Jared Gentry Baldwin"
        },
        "participant": [
          {
            "period": {
              "start": "1992-07-29T09:00:00-04:00",
              "end": "1992-07-29T09:00:00-04:00"
            },
            "individual": {
              "reference": "Practitioner/Practitioner-2530",
              "display": "Terrence Ramirez McCormick MD"
            }
          }
        ],
        "period": {
          "start": "1992-07-29T09:00:00-04:00",
          "end": "1992-07-29T09:00:00-04:00"
        },
        "location": [
          {
            "location": {
              "reference": "Location/Location-1103",
              "display": "Acme Medical Center"
            }
          }
        ],
        "serviceProvider": {
          "reference": "Organization/Organization-1103",
          "display": "Acme Medical Center"
        }
      },
      "request": {
        "method": "PUT",
        "url": "http://localhost:8080/cqf-ruler/baseDstu3Encounter/Encounter-645"
      }
    },
    {
      "fullUrl": "http://localhost:8080/cqf-ruler/baseDstu3Observation/Observation-84771",
      "resource": {
        "resourceType": "Observation",
        "id": "Observation-84771",
        "status": "final",
        "code": {
          "coding": [
            {
              "system": "http://loinc.org",
              "code": "8302-2",
              "display": "Height"
            }
          ]
        },
        "subject": {
          "reference": "Patient/Patient-6513",
          "display": "Jared Gentry Baldwin"
        },
        "context": {
          "reference": "Encounter/Encounter-645",
          "display": "Wellness Visit"
        },
        "effectiveDateTime": "1992-07-29T09:00:00-04:00",
        "performer": [
          {
            "reference": "Practitioner/Practitioner-2530",
            "display": "Terrence Ramirez McCormick MD"
          }
        ],
        "valueQuantity": {
          "value": 0.0,
          "unit": "cm"
        }
      },
      "request": {
        "method": "PUT",
        "url": "http://localhost:8080/cqf-ruler/baseDstu3Observation/Observation-84771"
      }
    },
    {
      "fullUrl": "http://localhost:8080/cqf-ruler/baseDstu3Observation/Observation-84772",
      "resource": {
        "resourceType": "Observation",
        "id": "Observation-84772",
        "status": "final",
        "code": {
          "coding": [
            {
              "system": "http://loinc.org",
              "code": "29463-7",
              "display": "Weight"
            }
          ]
        },
        "subject": {
          "reference": "Patient/Patient-6513",
          "display": "Jared Gentry Baldwin"
        },
        "context": {
          "reference": "Encounter/Encounter-645",
          "display": "Wellness Visit"
        },
        "effectiveDateTime": "1992-07-29T09:00:00-04:00",
        "performer": [
          {
            "reference": "Practitioner/Practitioner-2530",
            "display": "Terrence Ramirez McCormick MD"
          }
        ],
        "valueQuantity": {
          "value": 0.0,
          "unit": "kg"
        }
      },
      "request": {
        "method": "PUT",
        "url": "http://localhost:8080/cqf-ruler/baseDstu3Observation/Observation-84772"
      }
    },
    {
      "fullUrl": "http://localhost:8080/cqf-ruler/baseDstu3Observation/Observation-84773",
      "resource": {
        "resourceType": "Observation",
        "id": "Observation-84773",
        "status": "final",
        "code": {
          "coding": [
            {
              "system": "http://loinc.org",
              "code": "39156-5",
              "display": "BMI"
            }
          ]
        },
        "subject": {
          "reference": "Patient/Patient-6513",
          "display": "Jared Gentry Baldwin"
        },
        "context": {
          "reference": "Encounter/Encounter-645",
          "display": "Wellness Visit"
        },
        "effectiveDateTime": "1992-07-29T09:00:00-04:00",
        "performer": [
          {
            "reference": "Practitioner/Practitioner-2530",
            "display": "Terrence Ramirez McCormick MD"
          }
        ],
        "valueQuantity": {
          "value": 0.0,
          "unit": "kg/m2"
        }
      },
      "request": {
        "method": "PUT",
        "url": "http://localhost:8080/cqf-ruler/baseDstu3Observation/Observation-84773"
      }
    },
    {
      "fullUrl": "http://localhost:8080/cqf-ruler/baseDstu3Observation/Observation-84774",
      "resource": {
        "resourceType": "Observation",
        "id": "Observation-84774",
        "status": "final",
        "code": {
          "coding": [
            {
              "system": "http://loinc.org",
              "code": "8310-5",
              "display": "Temperature"
            }
          ]
        },
        "subject": {
          "reference": "Patient/Patient-6513",
          "display": "Jared Gentry Baldwin"
        },
        "context": {
          "reference": "Encounter/Encounter-645",
          "display": "Wellness Visit"
        },
        "effectiveDateTime": "1992-07-29T09:00:00-04:00",
        "performer": [
          {
            "reference": "Practitioner/Practitioner-2530",
            "display": "Terrence Ramirez McCormick MD"
          }
        ],
        "valueQuantity": {
          "value": 37.0,
          "unit": "C"
        }
      },
      "request": {
        "method": "PUT",
        "url": "http://localhost:8080/cqf-ruler/baseDstu3Observation/Observation-84774"
      }
    },
    {
      "fullUrl": "http://localhost:8080/cqf-ruler/baseDstu3Observation/Observation-84775",
      "resource": {
        "resourceType": "Observation",
        "id": "Observation-84775",
        "status": "final",
        "code": {
          "coding": [
            {
              "system": "http://loinc.org",
              "code": "8459-0",
              "display": "Systolic Blood Pressure"
            }
          ]
        },
        "subject": {
          "reference": "Patient/Patient-6513",
          "display": "Jared Gentry Baldwin"
        },
        "context": {
          "reference": "Encounter/Encounter-645",
          "display": "Wellness Visit"
        },
        "effectiveDateTime": "1992-07-29T09:00:00-04:00",
        "performer": [
          {
            "reference": "Practitioner/Practitioner-2530",
            "display": "Terrence Ramirez McCormick MD"
          }
        ],
        "valueQuantity": {
          "value": 115.34688314372129,
          "unit": "mmHg"
        }
      },
      "request": {
        "method": "PUT",
        "url": "http://localhost:8080/cqf-ruler/baseDstu3Observation/Observation-84775"
      }
    },
    {
      "fullUrl": "http://localhost:8080/cqf-ruler/baseDstu3Observation/Observation-84776",
      "resource": {
        "resourceType": "Observation",
        "id": "Observation-84776",
        "status": "final",
        "code": {
          "coding": [
            {
              "system": "http://loinc.org",
              "code": "8453-3",
              "display": "Diastolic Blood Pressure"
            }
          ]
        },
        "subject": {
          "reference": "Patient/Patient-6513",
          "display": "Jared Gentry Baldwin"
        },
        "context": {
          "reference": "Encounter/Encounter-645",
          "display": "Wellness Visit"
        },
        "effectiveDateTime": "1992-07-29T09:00:00-04:00",
        "performer": [
          {
            "reference": "Practitioner/Practitioner-2530",
            "display": "Terrence Ramirez McCormick MD"
          }
        ],
        "valueQuantity": {
          "value": 79.88430056110354,
          "unit": "mmHg"
        }
      },
      "request": {
        "method": "PUT",
        "url": "http://localhost:8080/cqf-ruler/baseDstu3Observation/Observation-84776"
      }
    },
    {
      "fullUrl": "http://localhost:8080/cqf-ruler/baseDstu3DiagnosticReport/DiagnosticReport-84770",
      "resource": {
        "resourceType": "DiagnosticReport",
        "id": "DiagnosticReport-84770",
        "status": "final",
        "code": {
          "coding": [
            {
              "system": "http://loinc.org",
              "code": "8716-3",
              "display": "Vital Signs Panel"
            }
          ]
        },
        "subject": {
          "reference": "Patient/Patient-6513",
          "display": "Jared Gentry Baldwin"
        },
        "context": {
          "reference": "Encounter/Encounter-645",
          "display": "Wellness Visit"
        },
        "effectivePeriod": {
          "start": "1992-07-29T09:00:00-04:00",
          "end": "1992-07-29T09:00:00-04:00"
        },
        "issued": "1992-07-29T09:00:00.000-04:00",
        "result": [
          {
            "reference": "Observation/Observation-84771",
            "display": "Height"
          },
          {
            "reference": "Observation/Observation-84772",
            "display": "Weight"
          },
          {
            "reference": "Observation/Observation-84773",
            "display": "BMI"
          },
          {
            "reference": "Observation/Observation-84774",
            "display": "Temperature"
          },
          {
            "reference": "Observation/Observation-84775",
            "display": "Systolic Blood Pressure"
          },
          {
            "reference": "Observation/Observation-84776",
            "display": "Diastolic Blood Pressure"
          }
        ]
      },
      "request": {
        "method": "PUT",
        "url": "http://localhost:8080/cqf-ruler/baseDstu3DiagnosticReport/DiagnosticReport-84770"
      }
    }
  ]
}