{
  "resourceType": "Bundle",
  "id": "Jared Gentry Baldwin-6513-Encounter-1296",
  "type": "transaction",
  "entry": [
    {
      "fullUrl": "http://localhost:8080/cqf-ruler/baseDstu3/Encounter/Encounter-1296",
      "resource": {
        "resourceType": "Encounter",
        "id": "Encounter-1296",
        "status": "finished",
        "class": {
          "system": "http://hl7.org/fhir/encounter-class",
          "code": "outpatient",
          "display": "Inpatient"
        },
        "subject": {
          "reference": "Patient/Patient-6513",
          "display": "Jared Gentry Baldwin"
        },
        "participant": [
          {
            "period": {
              "start": "2002-01-09T10:00:00-05:00",
              "end": "2002-01-09T10:00:00-05:00"
            },
            "individual": {
              "reference": "Practitioner/Practitioner-2530",
              "display": "Terrence Ramirez McCormick MD"
            }
          }
        ],
        "period": {
          "start": "2002-01-09T10:00:00-05:00",
          "end": "2002-01-09T10:00:00-05:00"
        },
        "location": [
          {
            "location": {
              "reference": "Location/Location-1103",
              "display": "Acme Medical Center"
            }
          }
        ],
        "serviceProvider": {
          "reference": "Organization/Organization-1103",
          "display": "Acme Medical Center"
        }
      },
      "request": {
        "method": "PUT",
        "url": "http://localhost:8080/cqf-ruler/baseDstu3/Encounter/Encounter-1296"
      }
    },
    {
      "fullUrl": "http://localhost:8080/cqf-ruler/baseDstu3/Immunization/Immunization-254210",
      "resource": {
        "resourceType": "Immunization",
        "id": "Immunization-254210",
        "status": "completed",
        "notGiven": false,
        "vaccineCode": {
          "coding": [
            {
              "system": "http://hl7.org/fhir/sid/cvx",
              "code": "140",
              "display": "Influenza, seasonal, injectable, preservative free"
            }
          ]
        },
        "patient": {
          "reference": "Patient/Patient-6513",
          "display": "Jared Gentry Baldwin"
        },
        "date": "2002-01-09T10:00:00-05:00",
        "primarySource": true,
        "location": {
          "reference": "Location/Location-1103",
          "display": "Acme Medical Center"
        },
        "practitioner": [
          {
            "actor": {
              "reference": "Practitioner/Practitioner-2530",
              "display": "Terrence Ramirez McCormick MD"
            }
          }
        ]
      },
      "request": {
        "method": "PUT",
        "url": "http://localhost:8080/cqf-ruler/baseDstu3/Immunization/Immunization-254210"
      }
    },
    {
      "fullUrl": "http://localhost:8080/cqf-ruler/baseDstu3/Observation/Observation-275521",
      "resource": {
        "resourceType": "Observation",
        "id": "Observation-275521",
        "status": "final",
        "code": {
          "coding": [
            {
              "system": "http://loinc.org",
              "code": "8302-2",
              "display": "Height"
            }
          ]
        },
        "subject": {
          "reference": "Patient/Patient-6513",
          "display": "Jared Gentry Baldwin"
        },
        "context": {
          "reference": "Encounter/Encounter-1296",
          "display": "Acme Medical Center"
        },
        "effectiveDateTime": "2002-01-09T10:00:00-05:00",
        "performer": [
          {
            "reference": "Practitioner/Practitioner-2530",
            "display": "Terrence Ramirez McCormick MD"
          }
        ],
        "valueQuantity": {
          "value": 132.8,
          "unit": "cm"
        }
      },
      "request": {
        "method": "PUT",
        "url": "http://localhost:8080/cqf-ruler/baseDstu3/Observation/Observation-275521"
      }
    },
    {
      "fullUrl": "http://localhost:8080/cqf-ruler/baseDstu3/Observation/Observation-275522",
      "resource": {
        "resourceType": "Observation",
        "id": "Observation-275522",
        "status": "final",
        "code": {
          "coding": [
            {
              "system": "http://loinc.org",
              "code": "29463-7",
              "display": "Weight"
            }
          ]
        },
        "subject": {
          "reference": "Patient/Patient-6513",
          "display": "Jared Gentry Baldwin"
        },
        "context": {
          "reference": "Encounter/Encounter-1296",
          "display": "Acme Medical Center"
        },
        "effectiveDateTime": "2002-01-09T10:00:00-05:00",
        "performer": [
          {
            "reference": "Practitioner/Practitioner-2530",
            "display": "Terrence Ramirez McCormick MD"
          }
        ],
        "valueQuantity": {
          "value": 0.0,
          "unit": "kg"
        }
      },
      "request": {
        "method": "PUT",
        "url": "http://localhost:8080/cqf-ruler/baseDstu3/Observation/Observation-275522"
      }
    },
    {
      "fullUrl": "http://localhost:8080/cqf-ruler/baseDstu3/Observation/Observation-275523",
      "resource": {
        "resourceType": "Observation",
        "id": "Observation-275523",
        "status": "final",
        "code": {
          "coding": [
            {
              "system": "http://loinc.org",
              "code": "39156-5",
              "display": "BMI"
            }
          ]
        },
        "subject": {
          "reference": "Patient/Patient-6513",
          "display": "Jared Gentry Baldwin"
        },
        "context": {
          "reference": "Encounter/Encounter-1296",
          "display": "Acme Medical Center"
        },
        "effectiveDateTime": "2002-01-09T10:00:00-05:00",
        "performer": [
          {
            "reference": "Practitioner/Practitioner-2530",
            "display": "Terrence Ramirez McCormick MD"
          }
        ],
        "valueQuantity": {
          "value": 0.0,
          "unit": "kg/m2"
        }
      },
      "request": {
        "method": "PUT",
        "url": "http://localhost:8080/cqf-ruler/baseDstu3/Observation/Observation-275523"
      }
    },
    {
      "fullUrl": "http://localhost:8080/cqf-ruler/baseDstu3/Observation/Observation-275524",
      "resource": {
        "resourceType": "Observation",
        "id": "Observation-275524",
        "status": "final",
        "code": {
          "coding": [
            {
              "system": "http://loinc.org",
              "code": "8310-5",
              "display": "Temperature"
            }
          ]
        },
        "subject": {
          "reference": "Patient/Patient-6513",
          "display": "Jared Gentry Baldwin"
        },
        "context": {
          "reference": "Encounter/Encounter-1296",
          "display": "Acme Medical Center"
        },
        "effectiveDateTime": "2002-01-09T10:00:00-05:00",
        "performer": [
          {
            "reference": "Practitioner/Practitioner-2530",
            "display": "Terrence Ramirez McCormick MD"
          }
        ],
        "valueQuantity": {
          "value": 37.0,
          "unit": "C"
        }
      },
      "request": {
        "method": "PUT",
        "url": "http://localhost:8080/cqf-ruler/baseDstu3/Observation/Observation-275524"
      }
    },
    {
      "fullUrl": "http://localhost:8080/cqf-ruler/baseDstu3/Observation/Observation-275525",
      "resource": {
        "resourceType": "Observation",
        "id": "Observation-275525",
        "status": "final",
        "code": {
          "coding": [
            {
              "system": "http://loinc.org",
              "code": "8459-0",
              "display": "Systolic Blood Pressure"
            }
          ]
        },
        "subject": {
          "reference": "Patient/Patient-6513",
          "display": "Jared Gentry Baldwin"
        },
        "context": {
          "reference": "Encounter/Encounter-1296",
          "display": "Acme Medical Center"
        },
        "effectiveDateTime": "2002-01-09T10:00:00-05:00",
        "performer": [
          {
            "reference": "Practitioner/Practitioner-2530",
            "display": "Terrence Ramirez McCormick MD"
          }
        ],
        "valueQuantity": {
          "value": 127.40117818247433,
          "unit": "mmHg"
        }
      },
      "request": {
        "method": "PUT",
        "url": "http://localhost:8080/cqf-ruler/baseDstu3/Observation/Observation-275525"
      }
    },
    {
      "fullUrl": "http://localhost:8080/cqf-ruler/baseDstu3/Observation/Observation-275526",
      "resource": {
        "resourceType": "Observation",
        "id": "Observation-275526",
        "status": "final",
        "code": {
          "coding": [
            {
              "system": "http://loinc.org",
              "code": "8453-3",
              "display": "Diastolic Blood Pressure"
            }
          ]
        },
        "subject": {
          "reference": "Patient/Patient-6513",
          "display": "Jared Gentry Baldwin"
        },
        "context": {
          "reference": "Encounter/Encounter-1296",
          "display": "Acme Medical Center"
        },
        "effectiveDateTime": "2002-01-09T10:00:00-05:00",
        "performer": [
          {
            "reference": "Practitioner/Practitioner-2530",
            "display": "Terrence Ramirez McCormick MD"
          }
        ],
        "valueQuantity": {
          "value": 81.5777951665482,
          "unit": "mmHg"
        }
      },
      "request": {
        "method": "PUT",
        "url": "http://localhost:8080/cqf-ruler/baseDstu3/Observation/Observation-275526"
      }
    },
    {
      "fullUrl": "http://localhost:8080/cqf-ruler/baseDstu3/DiagnosticReport/DiagnosticReport-275520",
      "resource": {
        "resourceType": "DiagnosticReport",
        "id": "DiagnosticReport-275520",
        "status": "final",
        "code": {
          "coding": [
            {
              "system": "http://loinc.org",
              "code": "8716-3",
              "display": "Vital Signs Panel"
            }
          ]
        },
        "subject": {
          "reference": "Patient/Patient-6513",
          "display": "Jared Gentry Baldwin"
        },
        "context": {
          "reference": "Encounter/Encounter-1296",
          "display": "Acme Medical Center"
        },
        "effectivePeriod": {
          "start": "2002-01-09T10:00:00-05:00",
          "end": "2002-01-09T10:00:00-05:00"
        },
        "issued": "2002-01-09T10:00:00.000-05:00",
        "result": [
          {
            "reference": "Observation/Observation-275521",
            "display": "Height"
          },
          {
            "reference": "Observation/Observation-275522",
            "display": "Weight"
          },
          {
            "reference": "Observation/Observation-275523",
            "display": "BMI"
          },
          {
            "reference": "Observation/Observation-275524",
            "display": "Temperature"
          },
          {
            "reference": "Observation/Observation-275525",
            "display": "Systolic Blood Pressure"
          },
          {
            "reference": "Observation/Observation-275526",
            "display": "Diastolic Blood Pressure"
          }
        ]
      },
      "request": {
        "method": "PUT",
        "url": "http://localhost:8080/cqf-ruler/baseDstu3/DiagnosticReport/DiagnosticReport-275520"
      }
    }
  ]
}