{
  "resourceType": "Bundle",
  "id": "Lillian Marcia Hicks-6530-Encounter-1783",
  "type": "transaction",
  "entry": [
    {
      "fullUrl": "http://localhost:8080/cqf-ruler/baseDstu3/Encounter/Encounter-1783",
      "resource": {
        "resourceType": "Encounter",
        "id": "Encounter-1783",
        "status": "finished",
        "class": {
          "system": "http://hl7.org/fhir/encounter-class",
          "code": "outpatient",
          "display": "Inpatient"
        },
        "subject": {
          "reference": "Patient/Patient-6530",
          "display": "Lillian Marcia Hicks"
        },
        "participant": [
          {
            "period": {
              "start": "2010-02-19T00:00:00-05:00",
              "end": "2010-02-19T00:00:00-05:00"
            },
            "individual": {
              "reference": "Practitioner/Practitioner-2527",
              "display": "Lee Chris Mejia MD"
            }
          }
        ],
        "period": {
          "start": "2010-02-19T00:00:00-05:00",
          "end": "2010-02-19T00:00:00-05:00"
        },
        "location": [
          {
            "location": {
              "reference": "Location/Location-1106",
              "display": "Cranston Family Medical"
            }
          }
        ],
        "serviceProvider": {
          "reference": "Organization/Organization-1106",
          "display": "Cranston Family Medical"
        }
      },
      "request": {
        "method": "PUT",
        "url": "http://localhost:8080/cqf-ruler/baseDstu3/Encounter/Encounter-1783"
      }
    },
    {
      "fullUrl": "http://localhost:8080/cqf-ruler/baseDstu3/Immunization/Immunization-384480",
      "resource": {
        "resourceType": "Immunization",
        "id": "Immunization-384480",
        "status": "completed",
        "notGiven": false,
        "vaccineCode": {
          "coding": [
            {
              "system": "http://hl7.org/fhir/sid/cvx",
              "code": "140",
              "display": "Influenza, seasonal, injectable, preservative free"
            }
          ]
        },
        "patient": {
          "reference": "Patient/Patient-6530",
          "display": "Lillian Marcia Hicks"
        },
        "date": "2010-02-19T00:00:00-05:00",
        "primarySource": true,
        "location": {
          "reference": "Location/Location-1106",
          "display": "Cranston Family Medical"
        },
        "practitioner": [
          {
            "actor": {
              "reference": "Practitioner/Practitioner-2527",
              "display": "Lee Chris Mejia MD"
            }
          }
        ]
      },
      "request": {
        "method": "PUT",
        "url": "http://localhost:8080/cqf-ruler/baseDstu3/Immunization/Immunization-384480"
      }
    },
    {
      "fullUrl": "http://localhost:8080/cqf-ruler/baseDstu3/Procedure/Procedure-451293",
      "resource": {
        "resourceType": "Procedure",
        "id": "Procedure-451293",
        "status": "completed",
        "code": {
          "coding": [
            {
              "system": "http://www.ama-assn.org/go/cpt",
              "code": "87624",
              "display": "Infectious agent detection by nucleic acid (DNA or RNA); Human Papillomavirus (HPV), high-risk types (eg, 16, 18, 31, 33, 35, 39, 45, 51, 52, 56, 58, 59, 68)"
            }
          ]
        },
        "subject": {
          "reference": "Patient/Patient-6530",
          "display": "Lillian Marcia Hicks"
        },
        "context": {
          "reference": "Encounter/Encounter-1783",
          "display": "Cranston Family Medical"
        },
        "performedPeriod": {
          "start": "2010-02-19T00:00:00-05:00",
          "end": "2010-02-19T00:00:00-05:00"
        },
        "performer": [
          {
            "actor": {
              "reference": "Practitioner/Practitioner-2527",
              "display": "Lee Chris Mejia MD"
            }
          }
        ],
        "location": {
          "reference": "Location/Location-1106",
          "display": "Cranston Family Medical"
        }
      },
      "request": {
        "method": "PUT",
        "url": "http://localhost:8080/cqf-ruler/baseDstu3/Procedure/Procedure-451293"
      }
    },
    {
      "fullUrl": "http://localhost:8080/cqf-ruler/baseDstu3/Observation/Observation-451294",
      "resource": {
        "resourceType": "Observation",
        "id": "Observation-451294",
        "status": "final",
        "code": {
          "coding": [
            {
              "system": "http://snomed.info/sct",
              "code": "289829007",
              "display": "Normal uterine cervix (finding)"
            }
          ]
        },
        "subject": {
          "reference": "Patient/Patient-6530",
          "display": "Lillian Marcia Hicks"
        },
        "context": {
          "reference": "Encounter/Encounter-1783",
          "display": "Cranston Family Medical"
        },
        "effectivePeriod": {
          "start": "2010-02-19T00:00:00-05:00",
          "end": "2010-02-19T00:00:00-05:00"
        },
        "performer": [
          {
            "reference": "Practitioner/Practitioner-2527",
            "display": "Lee Chris Mejia MD"
          }
        ],
        "valueString": "NEGATIVE"
      },
      "request": {
        "method": "PUT",
        "url": "http://localhost:8080/cqf-ruler/baseDstu3/Observation/Observation-451294"
      }
    },
    {
      "fullUrl": "http://localhost:8080/cqf-ruler/baseDstu3/DiagnosticReport/DiagnosticReport-451295",
      "resource": {
        "resourceType": "DiagnosticReport",
        "id": "DiagnosticReport-451295",
        "status": "final",
        "code": {
          "coding": [
            {
              "system": "http://www.ama-assn.org/go/cpt",
              "code": "88175",
              "display": "Cytopathology, cervical or vaginal (any reporting system), collected in preservative fluid, automated thin layer preparation; with screening by automated system and manual rescreening or review, under physician supervision"
            }
          ]
        },
        "subject": {
          "reference": "Patient/Patient-6530",
          "display": "Lillian Marcia Hicks"
        },
        "context": {
          "reference": "Encounter/Encounter-1783",
          "display": "Cranston Family Medical"
        },
        "effectivePeriod": {
          "start": "2010-02-19T00:00:00-05:00",
          "end": "2010-02-19T00:00:00-05:00"
        },
        "issued": "2010-02-19T00:00:00.000-05:00",
        "result": [
          {
            "reference": "Observation/Observation-451294",
            "display": "No_Cancer_Detected"
          }
        ]
      },
      "request": {
        "method": "PUT",
        "url": "http://localhost:8080/cqf-ruler/baseDstu3/DiagnosticReport/DiagnosticReport-451295"
      }
    },
    {
      "fullUrl": "http://localhost:8080/cqf-ruler/baseDstu3/Observation/Observation-451297",
      "resource": {
        "resourceType": "Observation",
        "id": "Observation-451297",
        "status": "final",
        "code": {
          "coding": [
            {
              "system": "http://loinc.org",
              "code": "8302-2",
              "display": "Height"
            }
          ]
        },
        "subject": {
          "reference": "Patient/Patient-6530",
          "display": "Lillian Marcia Hicks"
        },
        "context": {
          "reference": "Encounter/Encounter-1783",
          "display": "Cranston Family Medical"
        },
        "effectiveDateTime": "2010-02-19T00:00:00-05:00",
        "performer": [
          {
            "reference": "Practitioner/Practitioner-2527",
            "display": "Lee Chris Mejia MD"
          }
        ],
        "valueQuantity": {
          "value": 163.3,
          "unit": "cm"
        }
      },
      "request": {
        "method": "PUT",
        "url": "http://localhost:8080/cqf-ruler/baseDstu3/Observation/Observation-451297"
      }
    },
    {
      "fullUrl": "http://localhost:8080/cqf-ruler/baseDstu3/Observation/Observation-451298",
      "resource": {
        "resourceType": "Observation",
        "id": "Observation-451298",
        "status": "final",
        "code": {
          "coding": [
            {
              "system": "http://loinc.org",
              "code": "29463-7",
              "display": "Weight"
            }
          ]
        },
        "subject": {
          "reference": "Patient/Patient-6530",
          "display": "Lillian Marcia Hicks"
        },
        "context": {
          "reference": "Encounter/Encounter-1783",
          "display": "Cranston Family Medical"
        },
        "effectiveDateTime": "2010-02-19T00:00:00-05:00",
        "performer": [
          {
            "reference": "Practitioner/Practitioner-2527",
            "display": "Lee Chris Mejia MD"
          }
        ],
        "valueQuantity": {
          "value": 88.92017284490194,
          "unit": "kg"
        }
      },
      "request": {
        "method": "PUT",
        "url": "http://localhost:8080/cqf-ruler/baseDstu3/Observation/Observation-451298"
      }
    },
    {
      "fullUrl": "http://localhost:8080/cqf-ruler/baseDstu3/Observation/Observation-451299",
      "resource": {
        "resourceType": "Observation",
        "id": "Observation-451299",
        "status": "final",
        "code": {
          "coding": [
            {
              "system": "http://loinc.org",
              "code": "39156-5",
              "display": "BMI"
            }
          ]
        },
        "subject": {
          "reference": "Patient/Patient-6530",
          "display": "Lillian Marcia Hicks"
        },
        "context": {
          "reference": "Encounter/Encounter-1783",
          "display": "Cranston Family Medical"
        },
        "effectiveDateTime": "2010-02-19T00:00:00-05:00",
        "performer": [
          {
            "reference": "Practitioner/Practitioner-2527",
            "display": "Lee Chris Mejia MD"
          }
        ],
        "valueQuantity": {
          "value": 33.34478555425921,
          "unit": "kg/m2"
        }
      },
      "request": {
        "method": "PUT",
        "url": "http://localhost:8080/cqf-ruler/baseDstu3/Observation/Observation-451299"
      }
    },
    {
      "fullUrl": "http://localhost:8080/cqf-ruler/baseDstu3/Observation/Observation-451300",
      "resource": {
        "resourceType": "Observation",
        "id": "Observation-451300",
        "status": "final",
        "code": {
          "coding": [
            {
              "system": "http://loinc.org",
              "code": "8310-5",
              "display": "Temperature"
            }
          ]
        },
        "subject": {
          "reference": "Patient/Patient-6530",
          "display": "Lillian Marcia Hicks"
        },
        "context": {
          "reference": "Encounter/Encounter-1783",
          "display": "Cranston Family Medical"
        },
        "effectiveDateTime": "2010-02-19T00:00:00-05:00",
        "performer": [
          {
            "reference": "Practitioner/Practitioner-2527",
            "display": "Lee Chris Mejia MD"
          }
        ],
        "valueQuantity": {
          "value": 37.0,
          "unit": "C"
        }
      },
      "request": {
        "method": "PUT",
        "url": "http://localhost:8080/cqf-ruler/baseDstu3/Observation/Observation-451300"
      }
    },
    {
      "fullUrl": "http://localhost:8080/cqf-ruler/baseDstu3/Observation/Observation-451301",
      "resource": {
        "resourceType": "Observation",
        "id": "Observation-451301",
        "status": "final",
        "code": {
          "coding": [
            {
              "system": "http://loinc.org",
              "code": "8459-0",
              "display": "Systolic Blood Pressure"
            }
          ]
        },
        "subject": {
          "reference": "Patient/Patient-6530",
          "display": "Lillian Marcia Hicks"
        },
        "context": {
          "reference": "Encounter/Encounter-1783",
          "display": "Cranston Family Medical"
        },
        "effectiveDateTime": "2010-02-19T00:00:00-05:00",
        "performer": [
          {
            "reference": "Practitioner/Practitioner-2527",
            "display": "Lee Chris Mejia MD"
          }
        ],
        "valueQuantity": {
          "value": 137.55899254638422,
          "unit": "mmHg"
        }
      },
      "request": {
        "method": "PUT",
        "url": "http://localhost:8080/cqf-ruler/baseDstu3/Observation/Observation-451301"
      }
    },
    {
      "fullUrl": "http://localhost:8080/cqf-ruler/baseDstu3/Observation/Observation-451302",
      "resource": {
        "resourceType": "Observation",
        "id": "Observation-451302",
        "status": "final",
        "code": {
          "coding": [
            {
              "system": "http://loinc.org",
              "code": "8453-3",
              "display": "Diastolic Blood Pressure"
            }
          ]
        },
        "subject": {
          "reference": "Patient/Patient-6530",
          "display": "Lillian Marcia Hicks"
        },
        "context": {
          "reference": "Encounter/Encounter-1783",
          "display": "Cranston Family Medical"
        },
        "effectiveDateTime": "2010-02-19T00:00:00-05:00",
        "performer": [
          {
            "reference": "Practitioner/Practitioner-2527",
            "display": "Lee Chris Mejia MD"
          }
        ],
        "valueQuantity": {
          "value": 89.44455083103313,
          "unit": "mmHg"
        }
      },
      "request": {
        "method": "PUT",
        "url": "http://localhost:8080/cqf-ruler/baseDstu3/Observation/Observation-451302"
      }
    },
    {
      "fullUrl": "http://localhost:8080/cqf-ruler/baseDstu3/DiagnosticReport/DiagnosticReport-451296",
      "resource": {
        "resourceType": "DiagnosticReport",
        "id": "DiagnosticReport-451296",
        "status": "final",
        "code": {
          "coding": [
            {
              "system": "http://loinc.org",
              "code": "8716-3",
              "display": "Vital Signs Panel"
            }
          ]
        },
        "subject": {
          "reference": "Patient/Patient-6530",
          "display": "Lillian Marcia Hicks"
        },
        "context": {
          "reference": "Encounter/Encounter-1783",
          "display": "Cranston Family Medical"
        },
        "effectivePeriod": {
          "start": "2010-02-19T00:00:00-05:00",
          "end": "2010-02-19T00:00:00-05:00"
        },
        "issued": "2010-02-19T00:00:00.000-05:00",
        "result": [
          {
            "reference": "Observation/Observation-451297",
            "display": "Height"
          },
          {
            "reference": "Observation/Observation-451298",
            "display": "Weight"
          },
          {
            "reference": "Observation/Observation-451299",
            "display": "BMI"
          },
          {
            "reference": "Observation/Observation-451300",
            "display": "Temperature"
          },
          {
            "reference": "Observation/Observation-451301",
            "display": "Systolic Blood Pressure"
          },
          {
            "reference": "Observation/Observation-451302",
            "display": "Diastolic Blood Pressure"
          }
        ]
      },
      "request": {
        "method": "PUT",
        "url": "http://localhost:8080/cqf-ruler/baseDstu3/DiagnosticReport/DiagnosticReport-451296"
      }
    }
  ]
}