{
  "resourceType": "Bundle",
  "id": "Lillian Marcia Hicks-6530-Encounter-1560",
  "type": "transaction",
  "entry": [
    {
      "fullUrl": "http://localhost:8080/cqf-ruler/baseDstu3/Encounter/Encounter-1560",
      "resource": {
        "resourceType": "Encounter",
        "id": "Encounter-1560",
        "status": "finished",
        "class": {
          "system": "http://hl7.org/fhir/encounter-class",
          "code": "outpatient",
          "display": "Inpatient"
        },
        "subject": {
          "reference": "Patient/Patient-6530",
          "display": "Lillian Marcia Hicks"
        },
        "participant": [
          {
            "period": {
              "start": "2007-02-16T00:00:00-05:00",
              "end": "2007-02-16T00:00:00-05:00"
            },
            "individual": {
              "reference": "Practitioner/Practitioner-2527",
              "display": "Lee Chris Mejia MD"
            }
          }
        ],
        "period": {
          "start": "2007-02-16T00:00:00-05:00",
          "end": "2007-02-16T00:00:00-05:00"
        },
        "location": [
          {
            "location": {
              "reference": "Location/Location-1106",
              "display": "Cranston Family Medical"
            }
          }
        ],
        "serviceProvider": {
          "reference": "Organization/Organization-1106",
          "display": "Cranston Family Medical"
        }
      },
      "request": {
        "method": "PUT",
        "url": "http://localhost:8080/cqf-ruler/baseDstu3/Encounter/Encounter-1560"
      }
    },
    {
      "fullUrl": "http://localhost:8080/cqf-ruler/baseDstu3/Immunization/Immunization-320062",
      "resource": {
        "resourceType": "Immunization",
        "id": "Immunization-320062",
        "status": "completed",
        "notGiven": false,
        "vaccineCode": {
          "coding": [
            {
              "system": "http://hl7.org/fhir/sid/cvx",
              "code": "140",
              "display": "Influenza, seasonal, injectable, preservative free"
            }
          ]
        },
        "patient": {
          "reference": "Patient/Patient-6530",
          "display": "Lillian Marcia Hicks"
        },
        "date": "2007-02-16T00:00:00-05:00",
        "primarySource": true,
        "location": {
          "reference": "Location/Location-1106",
          "display": "Cranston Family Medical"
        },
        "practitioner": [
          {
            "actor": {
              "reference": "Practitioner/Practitioner-2527",
              "display": "Lee Chris Mejia MD"
            }
          }
        ]
      },
      "request": {
        "method": "PUT",
        "url": "http://localhost:8080/cqf-ruler/baseDstu3/Immunization/Immunization-320062"
      }
    },
    {
      "fullUrl": "http://localhost:8080/cqf-ruler/baseDstu3/Procedure/Procedure-384469",
      "resource": {
        "resourceType": "Procedure",
        "id": "Procedure-384469",
        "status": "completed",
        "code": {
          "coding": [
            {
              "system": "http://www.ama-assn.org/go/cpt",
              "code": "87620",
              "display": "Infectious agent detection by nucleic acid (DNA or RNA); papillomavirus, human, direct probe technique"
            }
          ]
        },
        "subject": {
          "reference": "Patient/Patient-6530",
          "display": "Lillian Marcia Hicks"
        },
        "context": {
          "reference": "Encounter/Encounter-1560",
          "display": "Cranston Family Medical"
        },
        "performedPeriod": {
          "start": "2007-02-16T00:00:00-05:00",
          "end": "2007-02-16T00:00:00-05:00"
        },
        "performer": [
          {
            "actor": {
              "reference": "Practitioner/Practitioner-2527",
              "display": "Lee Chris Mejia MD"
            }
          }
        ],
        "location": {
          "reference": "Location/Location-1106",
          "display": "Cranston Family Medical"
        }
      },
      "request": {
        "method": "PUT",
        "url": "http://localhost:8080/cqf-ruler/baseDstu3/Procedure/Procedure-384469"
      }
    },
    {
      "fullUrl": "http://localhost:8080/cqf-ruler/baseDstu3/Observation/Observation-384470",
      "resource": {
        "resourceType": "Observation",
        "id": "Observation-384470",
        "status": "final",
        "code": {
          "coding": [
            {
              "system": "http://snomed.info/sct",
              "code": "289829007",
              "display": "Normal uterine cervix (finding)"
            }
          ]
        },
        "subject": {
          "reference": "Patient/Patient-6530",
          "display": "Lillian Marcia Hicks"
        },
        "context": {
          "reference": "Encounter/Encounter-1560",
          "display": "Cranston Family Medical"
        },
        "effectivePeriod": {
          "start": "2007-02-16T00:00:00-05:00",
          "end": "2007-02-16T00:00:00-05:00"
        },
        "performer": [
          {
            "reference": "Practitioner/Practitioner-2527",
            "display": "Lee Chris Mejia MD"
          }
        ],
        "valueString": "NEGATIVE"
      },
      "request": {
        "method": "PUT",
        "url": "http://localhost:8080/cqf-ruler/baseDstu3/Observation/Observation-384470"
      }
    },
    {
      "fullUrl": "http://localhost:8080/cqf-ruler/baseDstu3/DiagnosticReport/DiagnosticReport-384471",
      "resource": {
        "resourceType": "DiagnosticReport",
        "id": "DiagnosticReport-384471",
        "status": "final",
        "code": {
          "coding": [
            {
              "system": "http://www.ama-assn.org/go/cpt",
              "code": "88150",
              "display": "Cytopathology, slides, cervical or vaginal; manual screening under physician supervision"
            }
          ]
        },
        "subject": {
          "reference": "Patient/Patient-6530",
          "display": "Lillian Marcia Hicks"
        },
        "context": {
          "reference": "Encounter/Encounter-1560",
          "display": "Cranston Family Medical"
        },
        "effectivePeriod": {
          "start": "2007-02-16T00:00:00-05:00",
          "end": "2007-02-16T00:00:00-05:00"
        },
        "issued": "2007-02-16T00:00:00.000-05:00",
        "result": [
          {
            "reference": "Observation/Observation-384470",
            "display": "No_Cancer_Detected"
          }
        ]
      },
      "request": {
        "method": "PUT",
        "url": "http://localhost:8080/cqf-ruler/baseDstu3/DiagnosticReport/DiagnosticReport-384471"
      }
    },
    {
      "fullUrl": "http://localhost:8080/cqf-ruler/baseDstu3/Observation/Observation-384473",
      "resource": {
        "resourceType": "Observation",
        "id": "Observation-384473",
        "status": "final",
        "code": {
          "coding": [
            {
              "system": "http://loinc.org",
              "code": "8302-2",
              "display": "Height"
            }
          ]
        },
        "subject": {
          "reference": "Patient/Patient-6530",
          "display": "Lillian Marcia Hicks"
        },
        "context": {
          "reference": "Encounter/Encounter-1560",
          "display": "Cranston Family Medical"
        },
        "effectiveDateTime": "2007-02-16T00:00:00-05:00",
        "performer": [
          {
            "reference": "Practitioner/Practitioner-2527",
            "display": "Lee Chris Mejia MD"
          }
        ],
        "valueQuantity": {
          "value": 163.3,
          "unit": "cm"
        }
      },
      "request": {
        "method": "PUT",
        "url": "http://localhost:8080/cqf-ruler/baseDstu3/Observation/Observation-384473"
      }
    },
    {
      "fullUrl": "http://localhost:8080/cqf-ruler/baseDstu3/Observation/Observation-384474",
      "resource": {
        "resourceType": "Observation",
        "id": "Observation-384474",
        "status": "final",
        "code": {
          "coding": [
            {
              "system": "http://loinc.org",
              "code": "29463-7",
              "display": "Weight"
            }
          ]
        },
        "subject": {
          "reference": "Patient/Patient-6530",
          "display": "Lillian Marcia Hicks"
        },
        "context": {
          "reference": "Encounter/Encounter-1560",
          "display": "Cranston Family Medical"
        },
        "effectiveDateTime": "2007-02-16T00:00:00-05:00",
        "performer": [
          {
            "reference": "Practitioner/Practitioner-2527",
            "display": "Lee Chris Mejia MD"
          }
        ],
        "valueQuantity": {
          "value": 87.75631508865057,
          "unit": "kg"
        }
      },
      "request": {
        "method": "PUT",
        "url": "http://localhost:8080/cqf-ruler/baseDstu3/Observation/Observation-384474"
      }
    },
    {
      "fullUrl": "http://localhost:8080/cqf-ruler/baseDstu3/Observation/Observation-384475",
      "resource": {
        "resourceType": "Observation",
        "id": "Observation-384475",
        "status": "final",
        "code": {
          "coding": [
            {
              "system": "http://loinc.org",
              "code": "39156-5",
              "display": "BMI"
            }
          ]
        },
        "subject": {
          "reference": "Patient/Patient-6530",
          "display": "Lillian Marcia Hicks"
        },
        "context": {
          "reference": "Encounter/Encounter-1560",
          "display": "Cranston Family Medical"
        },
        "effectiveDateTime": "2007-02-16T00:00:00-05:00",
        "performer": [
          {
            "reference": "Practitioner/Practitioner-2527",
            "display": "Lee Chris Mejia MD"
          }
        ],
        "valueQuantity": {
          "value": 32.9083425508751,
          "unit": "kg/m2"
        }
      },
      "request": {
        "method": "PUT",
        "url": "http://localhost:8080/cqf-ruler/baseDstu3/Observation/Observation-384475"
      }
    },
    {
      "fullUrl": "http://localhost:8080/cqf-ruler/baseDstu3/Observation/Observation-384476",
      "resource": {
        "resourceType": "Observation",
        "id": "Observation-384476",
        "status": "final",
        "code": {
          "coding": [
            {
              "system": "http://loinc.org",
              "code": "8310-5",
              "display": "Temperature"
            }
          ]
        },
        "subject": {
          "reference": "Patient/Patient-6530",
          "display": "Lillian Marcia Hicks"
        },
        "context": {
          "reference": "Encounter/Encounter-1560",
          "display": "Cranston Family Medical"
        },
        "effectiveDateTime": "2007-02-16T00:00:00-05:00",
        "performer": [
          {
            "reference": "Practitioner/Practitioner-2527",
            "display": "Lee Chris Mejia MD"
          }
        ],
        "valueQuantity": {
          "value": 37.0,
          "unit": "C"
        }
      },
      "request": {
        "method": "PUT",
        "url": "http://localhost:8080/cqf-ruler/baseDstu3/Observation/Observation-384476"
      }
    },
    {
      "fullUrl": "http://localhost:8080/cqf-ruler/baseDstu3/Observation/Observation-384477",
      "resource": {
        "resourceType": "Observation",
        "id": "Observation-384477",
        "status": "final",
        "code": {
          "coding": [
            {
              "system": "http://loinc.org",
              "code": "8459-0",
              "display": "Systolic Blood Pressure"
            }
          ]
        },
        "subject": {
          "reference": "Patient/Patient-6530",
          "display": "Lillian Marcia Hicks"
        },
        "context": {
          "reference": "Encounter/Encounter-1560",
          "display": "Cranston Family Medical"
        },
        "effectiveDateTime": "2007-02-16T00:00:00-05:00",
        "performer": [
          {
            "reference": "Practitioner/Practitioner-2527",
            "display": "Lee Chris Mejia MD"
          }
        ],
        "valueQuantity": {
          "value": 137.9642720440227,
          "unit": "mmHg"
        }
      },
      "request": {
        "method": "PUT",
        "url": "http://localhost:8080/cqf-ruler/baseDstu3/Observation/Observation-384477"
      }
    },
    {
      "fullUrl": "http://localhost:8080/cqf-ruler/baseDstu3/Observation/Observation-384478",
      "resource": {
        "resourceType": "Observation",
        "id": "Observation-384478",
        "status": "final",
        "code": {
          "coding": [
            {
              "system": "http://loinc.org",
              "code": "8453-3",
              "display": "Diastolic Blood Pressure"
            }
          ]
        },
        "subject": {
          "reference": "Patient/Patient-6530",
          "display": "Lillian Marcia Hicks"
        },
        "context": {
          "reference": "Encounter/Encounter-1560",
          "display": "Cranston Family Medical"
        },
        "effectiveDateTime": "2007-02-16T00:00:00-05:00",
        "performer": [
          {
            "reference": "Practitioner/Practitioner-2527",
            "display": "Lee Chris Mejia MD"
          }
        ],
        "valueQuantity": {
          "value": 88.82184316071665,
          "unit": "mmHg"
        }
      },
      "request": {
        "method": "PUT",
        "url": "http://localhost:8080/cqf-ruler/baseDstu3/Observation/Observation-384478"
      }
    },
    {
      "fullUrl": "http://localhost:8080/cqf-ruler/baseDstu3/DiagnosticReport/DiagnosticReport-384472",
      "resource": {
        "resourceType": "DiagnosticReport",
        "id": "DiagnosticReport-384472",
        "status": "final",
        "code": {
          "coding": [
            {
              "system": "http://loinc.org",
              "code": "8716-3",
              "display": "Vital Signs Panel"
            }
          ]
        },
        "subject": {
          "reference": "Patient/Patient-6530",
          "display": "Lillian Marcia Hicks"
        },
        "context": {
          "reference": "Encounter/Encounter-1560",
          "display": "Cranston Family Medical"
        },
        "effectivePeriod": {
          "start": "2007-02-16T00:00:00-05:00",
          "end": "2007-02-16T00:00:00-05:00"
        },
        "issued": "2007-02-16T00:00:00.000-05:00",
        "result": [
          {
            "reference": "Observation/Observation-384473",
            "display": "Height"
          },
          {
            "reference": "Observation/Observation-384474",
            "display": "Weight"
          },
          {
            "reference": "Observation/Observation-384475",
            "display": "BMI"
          },
          {
            "reference": "Observation/Observation-384476",
            "display": "Temperature"
          },
          {
            "reference": "Observation/Observation-384477",
            "display": "Systolic Blood Pressure"
          },
          {
            "reference": "Observation/Observation-384478",
            "display": "Diastolic Blood Pressure"
          }
        ]
      },
      "request": {
        "method": "PUT",
        "url": "http://localhost:8080/cqf-ruler/baseDstu3/DiagnosticReport/DiagnosticReport-384472"
      }
    }
  ]
}