{
  "resourceType": "Bundle",
  "id": "Lillian-Marcia-Hicks-6530-Encounter-4689",
  "type": "transaction",
  "entry": [
    {
      "fullUrl": "http://localhost:8080/cqf-ruler/baseDstu3/Encounter/Encounter-4689",
      "resource": {
        "resourceType": "Encounter",
        "id": "Encounter-4689",
        "meta": {
          "profile": [
            "http://hl7.org/fhir/us/hedis/StructureDefinition/hedis-encounter"
          ]
        },
        "status": "finished",
        "class": {
          "system": "http://hl7.org/fhir/encounter-class",
          "code": "outpatient",
          "display": "Outpatient"
        },
        "type": [
          {
            "coding": [
              {
                "system": "https://www.cms.gov/Medicare/Coding/MedHCPCSGenInfo",
                "code": "H0002",
                "display": "Behavioral health screening to determine eligibility for admission to treatment program (H0002)"
              }
            ]
          }
        ],
        "subject": {
          "reference": "Patient/Patient-6530",
          "display": "Lillian Marcia Hicks"
        },
        "participant": [
          {
            "period": {
              "start": "2017-12-29T00:00:00-05:00",
              "end": "2017-12-29T00:00:00-05:00"
            },
            "individual": {
              "reference": "Practitioner/Practitioner-2527",
              "display": "Lee Chris Mejia MD"
            }
          }
        ],
        "period": {
          "start": "2017-12-29T00:00:00-05:00",
          "end": "2017-12-29T00:00:00-05:00"
        },
        "reason": [
          {
            "coding": [
              {
                "system": "http://snomed.info/sct",
                "code": "310495003",
                "display": "Mild depression (disorder)"
              }
            ]
          }
        ],
        "location": [
          {
            "location": {
              "reference": "Location/Location-1106",
              "display": "Cranston Family Medical"
            }
          }
        ],
        "serviceProvider": {
          "reference": "Organization/Organization-1106",
          "display": "Cranston Family Medical"
        }
      },
      "request": {
        "method": "PUT",
        "url": "http://localhost:8080/cqf-ruler/baseDstu3/Encounter/Encounter-4689"
      }
    },
    {
      "fullUrl": "http://localhost:8080/cqf-ruler/baseDstu3/Procedure/Procedure-702241",
      "resource": {
        "resourceType": "Procedure",
        "id": "Procedure-702241",
        "meta": {
          "profile": [
            "http://hl7.org/fhir/us/hedis/StructureDefinition/hedis-procedure"
          ]
        },
        "status": "completed",
        "code": {
          "coding": [
            {
              "system": "http://test",
              "code": "2.16.840.1.113883.3.67.1.101.11.723",
              "display": "2.16.840.1.113883.3.67.1.101.11.723"
            }
          ]
        },
        "subject": {
          "reference": "Patient/Patient-6530",
          "display": "Lillian Marcia Hicks"
        },
        "context": {
          "reference": "Encounter/Encounter-4689",
          "display": "DRR_Encounter"
        },
        "performedPeriod": {
          "start": "2017-12-29T00:00:00-05:00",
          "end": "2017-12-29T00:00:00-05:00"
        },
        "performer": [
          {
            "actor": {
              "reference": "Practitioner/Practitioner-2527",
              "display": "Lee Chris Mejia MD"
            }
          }
        ],
        "location": {
          "reference": "Location/Location-1106",
          "display": "Cranston Family Medical"
        }
      },
      "request": {
        "method": "PUT",
        "url": "http://localhost:8080/cqf-ruler/baseDstu3/Procedure/Procedure-702241"
      }
    },
    {
      "fullUrl": "http://localhost:8080/cqf-ruler/baseDstu3/Observation/Observation-702242",
      "resource": {
        "resourceType": "Observation",
        "id": "Observation-702242",
        "meta": {
          "profile": [
            "http://hl7.org/fhir/us/hedis/StructureDefinition/hedis-observation"
          ]
        },
        "status": "final",
        "code": {
          "coding": [
            {
              "system": "http://cqframework.info/codesystem/placeholder",
              "code": "00009",
              "display": "PHQ-9 Modified Score"
            }
          ]
        },
        "subject": {
          "reference": "Patient/Patient-6530",
          "display": "Lillian Marcia Hicks"
        },
        "context": {
          "reference": "Encounter/Encounter-4689",
          "display": "DRR_Encounter"
        },
        "effectiveDateTime": "2017-12-29T00:00:00-05:00",
        "performer": [
          {
            "reference": "Practitioner/Practitioner-2527",
            "display": "Lee Chris Mejia MD"
          }
        ],
        "valueQuantity": {
          "value": 0.0,
          "unit": "score"
        }
      },
      "request": {
        "method": "PUT",
        "url": "http://localhost:8080/cqf-ruler/baseDstu3/Observation/Observation-702242"
      }
    },
    {
      "fullUrl": "http://localhost:8080/cqf-ruler/baseDstu3/DiagnosticReport/DiagnosticReport-702243",
      "resource": {
        "resourceType": "DiagnosticReport",
        "id": "DiagnosticReport-702243",
        "meta": {
          "profile": [
            "http://hl7.org/fhir/us/hedis/StructureDefinition/hedis-diagnosticreport"
          ]
        },
        "status": "final",
        "category": {
          "coding": [
            {
              "system": "http://hl7.org/fhir/ValueSet/diagnostic-service-sections",
              "code": "OTH",
              "display": "Other"
            }
          ]
        },
        "code": {
          "coding": [
            {
              "system": "http://hl7.org/fhir/sid/icd-10-cm",
              "code": "F32.4",
              "display": "[F32.4] Major depressive disorder, single episode, in partial remission"
            }
          ]
        },
        "subject": {
          "reference": "Patient/Patient-6530",
          "display": "Lillian Marcia Hicks"
        },
        "context": {
          "reference": "Encounter/Encounter-4689",
          "display": "DRR_Encounter"
        },
        "effectivePeriod": {
          "start": "2017-12-29T00:00:00-05:00",
          "end": "2017-12-29T00:00:00-05:00"
        },
        "issued": "2017-12-29T00:00:00.000-05:00"
      },
      "request": {
        "method": "PUT",
        "url": "http://localhost:8080/cqf-ruler/baseDstu3/DiagnosticReport/DiagnosticReport-702243"
      }
    },
    {
      "fullUrl": "http://localhost:8080/cqf-ruler/baseDstu3/Observation/Observation-702246",
      "resource": {
        "resourceType": "Observation",
        "id": "Observation-702246",
        "status": "final",
        "code": {
          "coding": [
            {
              "system": "http://loinc.org",
              "code": "8302-2",
              "display": "Height"
            }
          ]
        },
        "subject": {
          "reference": "Patient/Patient-6530",
          "display": "Lillian Marcia Hicks"
        },
        "context": {
          "reference": "Encounter/Encounter-4689",
          "display": "DRR_Encounter"
        },
        "effectiveDateTime": "2017-12-29T00:00:00-05:00",
        "performer": [
          {
            "reference": "Practitioner/Practitioner-2527",
            "display": "Lee Chris Mejia MD"
          }
        ],
        "valueQuantity": {
          "value": 163.3,
          "unit": "cm"
        }
      },
      "request": {
        "method": "PUT",
        "url": "http://localhost:8080/cqf-ruler/baseDstu3/Observation/Observation-702246"
      }
    },
    {
      "fullUrl": "http://localhost:8080/cqf-ruler/baseDstu3/Observation/Observation-702247",
      "resource": {
        "resourceType": "Observation",
        "id": "Observation-702247",
        "status": "final",
        "code": {
          "coding": [
            {
              "system": "http://loinc.org",
              "code": "29463-7",
              "display": "Weight"
            }
          ]
        },
        "subject": {
          "reference": "Patient/Patient-6530",
          "display": "Lillian Marcia Hicks"
        },
        "context": {
          "reference": "Encounter/Encounter-4689",
          "display": "DRR_Encounter"
        },
        "effectiveDateTime": "2017-12-29T00:00:00-05:00",
        "performer": [
          {
            "reference": "Practitioner/Practitioner-2527",
            "display": "Lee Chris Mejia MD"
          }
        ],
        "valueQuantity": {
          "value": 47.76107234370435,
          "unit": "kg"
        }
      },
      "request": {
        "method": "PUT",
        "url": "http://localhost:8080/cqf-ruler/baseDstu3/Observation/Observation-702247"
      }
    },
    {
      "fullUrl": "http://localhost:8080/cqf-ruler/baseDstu3/Observation/Observation-702248",
      "resource": {
        "resourceType": "Observation",
        "id": "Observation-702248",
        "status": "final",
        "code": {
          "coding": [
            {
              "system": "http://loinc.org",
              "code": "39156-5",
              "display": "BMI"
            }
          ]
        },
        "subject": {
          "reference": "Patient/Patient-6530",
          "display": "Lillian Marcia Hicks"
        },
        "context": {
          "reference": "Encounter/Encounter-4689",
          "display": "DRR_Encounter"
        },
        "effectiveDateTime": "2017-12-29T00:00:00-05:00",
        "performer": [
          {
            "reference": "Practitioner/Practitioner-2527",
            "display": "Lee Chris Mejia MD"
          }
        ],
        "valueQuantity": {
          "value": 17.91025213052754,
          "unit": "kg/m2"
        }
      },
      "request": {
        "method": "PUT",
        "url": "http://localhost:8080/cqf-ruler/baseDstu3/Observation/Observation-702248"
      }
    },
    {
      "fullUrl": "http://localhost:8080/cqf-ruler/baseDstu3/Observation/Observation-702249",
      "resource": {
        "resourceType": "Observation",
        "id": "Observation-702249",
        "status": "final",
        "code": {
          "coding": [
            {
              "system": "http://loinc.org",
              "code": "8310-5",
              "display": "Temperature"
            }
          ]
        },
        "subject": {
          "reference": "Patient/Patient-6530",
          "display": "Lillian Marcia Hicks"
        },
        "context": {
          "reference": "Encounter/Encounter-4689",
          "display": "DRR_Encounter"
        },
        "effectiveDateTime": "2017-12-29T00:00:00-05:00",
        "performer": [
          {
            "reference": "Practitioner/Practitioner-2527",
            "display": "Lee Chris Mejia MD"
          }
        ],
        "valueQuantity": {
          "value": 37.0,
          "unit": "C"
        }
      },
      "request": {
        "method": "PUT",
        "url": "http://localhost:8080/cqf-ruler/baseDstu3/Observation/Observation-702249"
      }
    },
    {
      "fullUrl": "http://localhost:8080/cqf-ruler/baseDstu3/Observation/Observation-702250",
      "resource": {
        "resourceType": "Observation",
        "id": "Observation-702250",
        "status": "final",
        "code": {
          "coding": [
            {
              "system": "http://loinc.org",
              "code": "8459-0",
              "display": "Systolic Blood Pressure"
            }
          ]
        },
        "subject": {
          "reference": "Patient/Patient-6530",
          "display": "Lillian Marcia Hicks"
        },
        "context": {
          "reference": "Encounter/Encounter-4689",
          "display": "DRR_Encounter"
        },
        "effectiveDateTime": "2017-12-29T00:00:00-05:00",
        "performer": [
          {
            "reference": "Practitioner/Practitioner-2527",
            "display": "Lee Chris Mejia MD"
          }
        ],
        "valueQuantity": {
          "value": 148.6106380323301,
          "unit": "mmHg"
        }
      },
      "request": {
        "method": "PUT",
        "url": "http://localhost:8080/cqf-ruler/baseDstu3/Observation/Observation-702250"
      }
    },
    {
      "fullUrl": "http://localhost:8080/cqf-ruler/baseDstu3/Observation/Observation-702251",
      "resource": {
        "resourceType": "Observation",
        "id": "Observation-702251",
        "status": "final",
        "code": {
          "coding": [
            {
              "system": "http://loinc.org",
              "code": "8453-3",
              "display": "Diastolic Blood Pressure"
            }
          ]
        },
        "subject": {
          "reference": "Patient/Patient-6530",
          "display": "Lillian Marcia Hicks"
        },
        "context": {
          "reference": "Encounter/Encounter-4689",
          "display": "DRR_Encounter"
        },
        "effectiveDateTime": "2017-12-29T00:00:00-05:00",
        "performer": [
          {
            "reference": "Practitioner/Practitioner-2527",
            "display": "Lee Chris Mejia MD"
          }
        ],
        "valueQuantity": {
          "value": 64.24843210889884,
          "unit": "mmHg"
        }
      },
      "request": {
        "method": "PUT",
        "url": "http://localhost:8080/cqf-ruler/baseDstu3/Observation/Observation-702251"
      }
    },
    {
      "fullUrl": "http://localhost:8080/cqf-ruler/baseDstu3/DiagnosticReport/DiagnosticReport-702245",
      "resource": {
        "resourceType": "DiagnosticReport",
        "id": "DiagnosticReport-702245",
        "meta": {
          "profile": [
            "http://hl7.org/fhir/us/hedis/StructureDefinition/hedis-diagnosticreport"
          ]
        },
        "status": "final",
        "category": {
          "coding": [
            {
              "system": "http://hl7.org/fhir/ValueSet/diagnostic-service-sections",
              "code": "LAB",
              "display": "Laboratory"
            }
          ]
        },
        "code": {
          "coding": [
            {
              "system": "http://loinc.org",
              "code": "8716-3",
              "display": "Vital Signs Panel"
            }
          ]
        },
        "subject": {
          "reference": "Patient/Patient-6530",
          "display": "Lillian Marcia Hicks"
        },
        "context": {
          "reference": "Encounter/Encounter-4689",
          "display": "DRR_Encounter"
        },
        "effectivePeriod": {
          "start": "2017-12-29T00:00:00-05:00",
          "end": "2017-12-29T00:00:00-05:00"
        },
        "issued": "2017-12-29T00:00:00.000-05:00",
        "result": [
          {
            "reference": "Observation/Observation-702246",
            "display": "Height"
          },
          {
            "reference": "Observation/Observation-702247",
            "display": "Weight"
          },
          {
            "reference": "Observation/Observation-702248",
            "display": "BMI"
          },
          {
            "reference": "Observation/Observation-702249",
            "display": "Temperature"
          },
          {
            "reference": "Observation/Observation-702250",
            "display": "Systolic Blood Pressure"
          },
          {
            "reference": "Observation/Observation-702251",
            "display": "Diastolic Blood Pressure"
          }
        ]
      },
      "request": {
        "method": "PUT",
        "url": "http://localhost:8080/cqf-ruler/baseDstu3/DiagnosticReport/DiagnosticReport-702245"
      }
    }
  ]
}