{
  "resourceType": "Bundle",
  "id": "Gabriel-Oconnell-Stevenson-6493-Encounter-3993",
  "type": "transaction",
  "entry": [
    {
      "fullUrl": "http://localhost:8080/cqf-ruler/baseDstu3/Encounter/Encounter-3993",
      "resource": {
        "resourceType": "Encounter",
        "id": "Encounter-3993",
        "meta": {
          "profile": [
            "http://hl7.org/fhir/us/hedis/StructureDefinition/hedis-encounter"
          ]
        },
        "status": "finished",
        "class": {
          "system": "http://hl7.org/fhir/encounter-class",
          "code": "outpatient",
          "display": "Outpatient"
        },
        "type": [
          {
            "coding": [
              {
                "system": "http://www.nubc.org",
                "code": "0526",
                "display": "Urgent care clinic"
              }
            ]
          }
        ],
        "subject": {
          "reference": "Patient/Patient-6493",
          "display": "Gabriel Oconnell Stevenson"
        },
        "participant": [
          {
            "period": {
              "start": "2017-06-30T01:00:00-04:00",
              "end": "2017-06-30T01:00:00-04:00"
            },
            "individual": {
              "reference": "Practitioner/Practitioner-2530",
              "display": "Terrence Ramirez McCormick MD"
            }
          }
        ],
        "period": {
          "start": "2017-06-30T01:00:00-04:00",
          "end": "2017-06-30T01:00:00-04:00"
        },
        "reason": [
          {
            "coding": [
              {
                "system": "http://snomed.info/sct",
                "code": "310495003",
                "display": "Mild depression (disorder)"
              }
            ]
          }
        ],
        "location": [
          {
            "location": {
              "reference": "Location/Location-1103",
              "display": "Acme Medical Center"
            }
          }
        ],
        "serviceProvider": {
          "reference": "Organization/Organization-1103",
          "display": "Acme Medical Center"
        }
      },
      "request": {
        "method": "PUT",
        "url": "http://localhost:8080/cqf-ruler/baseDstu3/Encounter/Encounter-3993"
      }
    },
    {
      "fullUrl": "http://localhost:8080/cqf-ruler/baseDstu3/Procedure/Procedure-680539",
      "resource": {
        "resourceType": "Procedure",
        "id": "Procedure-680539",
        "meta": {
          "profile": [
            "http://hl7.org/fhir/us/hedis/StructureDefinition/hedis-procedure"
          ]
        },
        "status": "completed",
        "code": {
          "coding": [
            {
              "system": "http://test",
              "code": "2.16.840.1.113883.3.67.1.101.11.723",
              "display": "2.16.840.1.113883.3.67.1.101.11.723"
            }
          ]
        },
        "subject": {
          "reference": "Patient/Patient-6493",
          "display": "Gabriel Oconnell Stevenson"
        },
        "context": {
          "reference": "Encounter/Encounter-3993",
          "display": "DRR_Encounter"
        },
        "performedPeriod": {
          "start": "2017-06-30T01:00:00-04:00",
          "end": "2017-06-30T01:00:00-04:00"
        },
        "performer": [
          {
            "actor": {
              "reference": "Practitioner/Practitioner-2530",
              "display": "Terrence Ramirez McCormick MD"
            }
          }
        ],
        "location": {
          "reference": "Location/Location-1103",
          "display": "Acme Medical Center"
        }
      },
      "request": {
        "method": "PUT",
        "url": "http://localhost:8080/cqf-ruler/baseDstu3/Procedure/Procedure-680539"
      }
    },
    {
      "fullUrl": "http://localhost:8080/cqf-ruler/baseDstu3/Observation/Observation-680540",
      "resource": {
        "resourceType": "Observation",
        "id": "Observation-680540",
        "meta": {
          "profile": [
            "http://hl7.org/fhir/us/hedis/StructureDefinition/hedis-observation"
          ]
        },
        "status": "final",
        "code": {
          "coding": [
            {
              "system": "http://cqframework.info/codesystem/placeholder",
              "code": "00009",
              "display": "PHQ-9 Modified Score"
            }
          ]
        },
        "subject": {
          "reference": "Patient/Patient-6493",
          "display": "Gabriel Oconnell Stevenson"
        },
        "context": {
          "reference": "Encounter/Encounter-3993",
          "display": "DRR_Encounter"
        },
        "effectiveDateTime": "2017-06-30T01:00:00-04:00",
        "performer": [
          {
            "reference": "Practitioner/Practitioner-2530",
            "display": "Terrence Ramirez McCormick MD"
          }
        ],
        "valueQuantity": {
          "value": 0.0,
          "unit": "score"
        }
      },
      "request": {
        "method": "PUT",
        "url": "http://localhost:8080/cqf-ruler/baseDstu3/Observation/Observation-680540"
      }
    },
    {
      "fullUrl": "http://localhost:8080/cqf-ruler/baseDstu3/DiagnosticReport/DiagnosticReport-680541",
      "resource": {
        "resourceType": "DiagnosticReport",
        "id": "DiagnosticReport-680541",
        "meta": {
          "profile": [
            "http://hl7.org/fhir/us/hedis/StructureDefinition/hedis-diagnosticreport"
          ]
        },
        "status": "final",
        "category": {
          "coding": [
            {
              "system": "http://hl7.org/fhir/ValueSet/diagnostic-service-sections",
              "code": "OTH",
              "display": "Other"
            }
          ]
        },
        "code": {
          "coding": [
            {
              "system": "http://hl7.org/fhir/sid/icd-9-cm",
              "code": "296.25",
              "display": "Major depressive affective disorder, single episode, in partial or unspecified remission"
            }
          ]
        },
        "subject": {
          "reference": "Patient/Patient-6493",
          "display": "Gabriel Oconnell Stevenson"
        },
        "context": {
          "reference": "Encounter/Encounter-3993",
          "display": "DRR_Encounter"
        },
        "effectivePeriod": {
          "start": "2017-06-30T01:00:00-04:00",
          "end": "2017-06-30T01:00:00-04:00"
        },
        "issued": "2017-06-30T01:00:00.000-04:00"
      },
      "request": {
        "method": "PUT",
        "url": "http://localhost:8080/cqf-ruler/baseDstu3/DiagnosticReport/DiagnosticReport-680541"
      }
    },
    {
      "fullUrl": "http://localhost:8080/cqf-ruler/baseDstu3/Observation/Observation-680544",
      "resource": {
        "resourceType": "Observation",
        "id": "Observation-680544",
        "status": "final",
        "code": {
          "coding": [
            {
              "system": "http://loinc.org",
              "code": "8302-2",
              "display": "Height"
            }
          ]
        },
        "subject": {
          "reference": "Patient/Patient-6493",
          "display": "Gabriel Oconnell Stevenson"
        },
        "context": {
          "reference": "Encounter/Encounter-3993",
          "display": "DRR_Encounter"
        },
        "effectiveDateTime": "2017-06-30T01:00:00-04:00",
        "performer": [
          {
            "reference": "Practitioner/Practitioner-2530",
            "display": "Terrence Ramirez McCormick MD"
          }
        ],
        "valueQuantity": {
          "value": 176.8,
          "unit": "cm"
        }
      },
      "request": {
        "method": "PUT",
        "url": "http://localhost:8080/cqf-ruler/baseDstu3/Observation/Observation-680544"
      }
    },
    {
      "fullUrl": "http://localhost:8080/cqf-ruler/baseDstu3/Observation/Observation-680545",
      "resource": {
        "resourceType": "Observation",
        "id": "Observation-680545",
        "status": "final",
        "code": {
          "coding": [
            {
              "system": "http://loinc.org",
              "code": "29463-7",
              "display": "Weight"
            }
          ]
        },
        "subject": {
          "reference": "Patient/Patient-6493",
          "display": "Gabriel Oconnell Stevenson"
        },
        "context": {
          "reference": "Encounter/Encounter-3993",
          "display": "DRR_Encounter"
        },
        "effectiveDateTime": "2017-06-30T01:00:00-04:00",
        "performer": [
          {
            "reference": "Practitioner/Practitioner-2530",
            "display": "Terrence Ramirez McCormick MD"
          }
        ],
        "valueQuantity": {
          "value": 73.71889999007622,
          "unit": "kg"
        }
      },
      "request": {
        "method": "PUT",
        "url": "http://localhost:8080/cqf-ruler/baseDstu3/Observation/Observation-680545"
      }
    },
    {
      "fullUrl": "http://localhost:8080/cqf-ruler/baseDstu3/Observation/Observation-680546",
      "resource": {
        "resourceType": "Observation",
        "id": "Observation-680546",
        "status": "final",
        "code": {
          "coding": [
            {
              "system": "http://loinc.org",
              "code": "39156-5",
              "display": "BMI"
            }
          ]
        },
        "subject": {
          "reference": "Patient/Patient-6493",
          "display": "Gabriel Oconnell Stevenson"
        },
        "context": {
          "reference": "Encounter/Encounter-3993",
          "display": "DRR_Encounter"
        },
        "effectiveDateTime": "2017-06-30T01:00:00-04:00",
        "performer": [
          {
            "reference": "Practitioner/Practitioner-2530",
            "display": "Terrence Ramirez McCormick MD"
          }
        ],
        "valueQuantity": {
          "value": 23.583829412684853,
          "unit": "kg/m2"
        }
      },
      "request": {
        "method": "PUT",
        "url": "http://localhost:8080/cqf-ruler/baseDstu3/Observation/Observation-680546"
      }
    },
    {
      "fullUrl": "http://localhost:8080/cqf-ruler/baseDstu3/Observation/Observation-680547",
      "resource": {
        "resourceType": "Observation",
        "id": "Observation-680547",
        "status": "final",
        "code": {
          "coding": [
            {
              "system": "http://loinc.org",
              "code": "8310-5",
              "display": "Temperature"
            }
          ]
        },
        "subject": {
          "reference": "Patient/Patient-6493",
          "display": "Gabriel Oconnell Stevenson"
        },
        "context": {
          "reference": "Encounter/Encounter-3993",
          "display": "DRR_Encounter"
        },
        "effectiveDateTime": "2017-06-30T01:00:00-04:00",
        "performer": [
          {
            "reference": "Practitioner/Practitioner-2530",
            "display": "Terrence Ramirez McCormick MD"
          }
        ],
        "valueQuantity": {
          "value": 37.0,
          "unit": "C"
        }
      },
      "request": {
        "method": "PUT",
        "url": "http://localhost:8080/cqf-ruler/baseDstu3/Observation/Observation-680547"
      }
    },
    {
      "fullUrl": "http://localhost:8080/cqf-ruler/baseDstu3/Observation/Observation-680548",
      "resource": {
        "resourceType": "Observation",
        "id": "Observation-680548",
        "status": "final",
        "code": {
          "coding": [
            {
              "system": "http://loinc.org",
              "code": "8459-0",
              "display": "Systolic Blood Pressure"
            }
          ]
        },
        "subject": {
          "reference": "Patient/Patient-6493",
          "display": "Gabriel Oconnell Stevenson"
        },
        "context": {
          "reference": "Encounter/Encounter-3993",
          "display": "DRR_Encounter"
        },
        "effectiveDateTime": "2017-06-30T01:00:00-04:00",
        "performer": [
          {
            "reference": "Practitioner/Practitioner-2530",
            "display": "Terrence Ramirez McCormick MD"
          }
        ],
        "valueQuantity": {
          "value": 127.00634323543682,
          "unit": "mmHg"
        }
      },
      "request": {
        "method": "PUT",
        "url": "http://localhost:8080/cqf-ruler/baseDstu3/Observation/Observation-680548"
      }
    },
    {
      "fullUrl": "http://localhost:8080/cqf-ruler/baseDstu3/Observation/Observation-680549",
      "resource": {
        "resourceType": "Observation",
        "id": "Observation-680549",
        "status": "final",
        "code": {
          "coding": [
            {
              "system": "http://loinc.org",
              "code": "8453-3",
              "display": "Diastolic Blood Pressure"
            }
          ]
        },
        "subject": {
          "reference": "Patient/Patient-6493",
          "display": "Gabriel Oconnell Stevenson"
        },
        "context": {
          "reference": "Encounter/Encounter-3993",
          "display": "DRR_Encounter"
        },
        "effectiveDateTime": "2017-06-30T01:00:00-04:00",
        "performer": [
          {
            "reference": "Practitioner/Practitioner-2530",
            "display": "Terrence Ramirez McCormick MD"
          }
        ],
        "valueQuantity": {
          "value": 120.04683821538363,
          "unit": "mmHg"
        }
      },
      "request": {
        "method": "PUT",
        "url": "http://localhost:8080/cqf-ruler/baseDstu3/Observation/Observation-680549"
      }
    },
    {
      "fullUrl": "http://localhost:8080/cqf-ruler/baseDstu3/DiagnosticReport/DiagnosticReport-680543",
      "resource": {
        "resourceType": "DiagnosticReport",
        "id": "DiagnosticReport-680543",
        "meta": {
          "profile": [
            "http://hl7.org/fhir/us/hedis/StructureDefinition/hedis-diagnosticreport"
          ]
        },
        "status": "final",
        "category": {
          "coding": [
            {
              "system": "http://hl7.org/fhir/ValueSet/diagnostic-service-sections",
              "code": "LAB",
              "display": "Laboratory"
            }
          ]
        },
        "code": {
          "coding": [
            {
              "system": "http://loinc.org",
              "code": "8716-3",
              "display": "Vital Signs Panel"
            }
          ]
        },
        "subject": {
          "reference": "Patient/Patient-6493",
          "display": "Gabriel Oconnell Stevenson"
        },
        "context": {
          "reference": "Encounter/Encounter-3993",
          "display": "DRR_Encounter"
        },
        "effectivePeriod": {
          "start": "2017-06-30T01:00:00-04:00",
          "end": "2017-06-30T01:00:00-04:00"
        },
        "issued": "2017-06-30T01:00:00.000-04:00",
        "result": [
          {
            "reference": "Observation/Observation-680544",
            "display": "Height"
          },
          {
            "reference": "Observation/Observation-680545",
            "display": "Weight"
          },
          {
            "reference": "Observation/Observation-680546",
            "display": "BMI"
          },
          {
            "reference": "Observation/Observation-680547",
            "display": "Temperature"
          },
          {
            "reference": "Observation/Observation-680548",
            "display": "Systolic Blood Pressure"
          },
          {
            "reference": "Observation/Observation-680549",
            "display": "Diastolic Blood Pressure"
          }
        ]
      },
      "request": {
        "method": "PUT",
        "url": "http://localhost:8080/cqf-ruler/baseDstu3/DiagnosticReport/DiagnosticReport-680543"
      }
    }
  ]
}