{
  "resourceType": "Bundle",
  "id": "Gabriel-Oconnell-Stevenson-6493-Encounter-660",
  "type": "transaction",
  "entry": [
    {
      "fullUrl": "http://localhost:8080/cqf-ruler/baseDstu3/Encounter/Encounter-660",
      "resource": {
        "resourceType": "Encounter",
        "id": "Encounter-660",
        "status": "finished",
        "class": {
          "system": "http://hl7.org/fhir/encounter-class",
          "code": "outpatient",
          "display": "Inpatient"
        },
        "subject": {
          "reference": "Patient/Patient-6493",
          "display": "Gabriel Oconnell Stevenson"
        },
        "participant": [
          {
            "period": {
              "start": "1994-06-03T00:00:00-04:00",
              "end": "1994-06-03T00:00:00-04:00"
            },
            "individual": {
              "reference": "Practitioner/Practitioner-2530",
              "display": "Terrence Ramirez McCormick MD"
            }
          }
        ],
        "period": {
          "start": "1994-06-03T00:00:00-04:00",
          "end": "1994-06-03T00:00:00-04:00"
        },
        "location": [
          {
            "location": {
              "reference": "Location/Location-1103",
              "display": "Acme Medical Center"
            }
          }
        ],
        "serviceProvider": {
          "reference": "Organization/Organization-1103",
          "display": "Acme Medical Center"
        }
      },
      "request": {
        "method": "PUT",
        "url": "http://localhost:8080/cqf-ruler/baseDstu3/Encounter/Encounter-660"
      }
    },
    {
      "fullUrl": "http://localhost:8080/cqf-ruler/baseDstu3/Immunization/Immunization-103228",
      "resource": {
        "resourceType": "Immunization",
        "id": "Immunization-103228",
        "status": "completed",
        "notGiven": false,
        "vaccineCode": {
          "coding": [
            {
              "system": "http://hl7.org/fhir/sid/cvx",
              "code": "140",
              "display": "Influenza, seasonal, injectable, preservative free"
            }
          ]
        },
        "patient": {
          "reference": "Patient/Patient-6493",
          "display": "Gabriel Oconnell Stevenson"
        },
        "date": "1994-06-03T00:00:00-04:00",
        "primarySource": true,
        "location": {
          "reference": "Location/Location-1103",
          "display": "Acme Medical Center"
        },
        "practitioner": [
          {
            "actor": {
              "reference": "Practitioner/Practitioner-2530",
              "display": "Terrence Ramirez McCormick MD"
            }
          }
        ]
      },
      "request": {
        "method": "PUT",
        "url": "http://localhost:8080/cqf-ruler/baseDstu3/Immunization/Immunization-103228"
      }
    },
    {
      "fullUrl": "http://localhost:8080/cqf-ruler/baseDstu3/Immunization/Immunization-103229",
      "resource": {
        "resourceType": "Immunization",
        "id": "Immunization-103229",
        "status": "completed",
        "notGiven": false,
        "vaccineCode": {
          "coding": [
            {
              "system": "http://hl7.org/fhir/sid/cvx",
              "code": "62",
              "display": "HPV, quadrivalent"
            }
          ]
        },
        "patient": {
          "reference": "Patient/Patient-6493",
          "display": "Gabriel Oconnell Stevenson"
        },
        "date": "1994-06-03T00:00:00-04:00",
        "primarySource": true,
        "location": {
          "reference": "Location/Location-1103",
          "display": "Acme Medical Center"
        },
        "practitioner": [
          {
            "actor": {
              "reference": "Practitioner/Practitioner-2530",
              "display": "Terrence Ramirez McCormick MD"
            }
          }
        ]
      },
      "request": {
        "method": "PUT",
        "url": "http://localhost:8080/cqf-ruler/baseDstu3/Immunization/Immunization-103229"
      }
    },
    {
      "fullUrl": "http://localhost:8080/cqf-ruler/baseDstu3/Immunization/Immunization-103230",
      "resource": {
        "resourceType": "Immunization",
        "id": "Immunization-103230",
        "status": "completed",
        "notGiven": false,
        "vaccineCode": {
          "coding": [
            {
              "system": "http://hl7.org/fhir/sid/cvx",
              "code": "114",
              "display": "meningococcal MCV4P"
            }
          ]
        },
        "patient": {
          "reference": "Patient/Patient-6493",
          "display": "Gabriel Oconnell Stevenson"
        },
        "date": "1994-06-03T00:00:00-04:00",
        "primarySource": true,
        "location": {
          "reference": "Location/Location-1103",
          "display": "Acme Medical Center"
        },
        "practitioner": [
          {
            "actor": {
              "reference": "Practitioner/Practitioner-2530",
              "display": "Terrence Ramirez McCormick MD"
            }
          }
        ]
      },
      "request": {
        "method": "PUT",
        "url": "http://localhost:8080/cqf-ruler/baseDstu3/Immunization/Immunization-103230"
      }
    },
    {
      "fullUrl": "http://localhost:8080/cqf-ruler/baseDstu3/Immunization/Immunization-103231",
      "resource": {
        "resourceType": "Immunization",
        "id": "Immunization-103231",
        "status": "completed",
        "notGiven": false,
        "vaccineCode": {
          "coding": [
            {
              "system": "http://hl7.org/fhir/sid/cvx",
              "code": "115",
              "display": "Tdap"
            }
          ]
        },
        "patient": {
          "reference": "Patient/Patient-6493",
          "display": "Gabriel Oconnell Stevenson"
        },
        "date": "1994-06-03T00:00:00-04:00",
        "primarySource": true,
        "location": {
          "reference": "Location/Location-1103",
          "display": "Acme Medical Center"
        },
        "practitioner": [
          {
            "actor": {
              "reference": "Practitioner/Practitioner-2530",
              "display": "Terrence Ramirez McCormick MD"
            }
          }
        ]
      },
      "request": {
        "method": "PUT",
        "url": "http://localhost:8080/cqf-ruler/baseDstu3/Immunization/Immunization-103231"
      }
    },
    {
      "fullUrl": "http://localhost:8080/cqf-ruler/baseDstu3/Observation/Observation-123815",
      "resource": {
        "resourceType": "Observation",
        "id": "Observation-123815",
        "status": "final",
        "code": {
          "coding": [
            {
              "system": "http://loinc.org",
              "code": "8480-6",
              "display": "Systolic blood pressure"
            }
          ]
        },
        "subject": {
          "reference": "Patient/Patient-6493",
          "display": "Gabriel Oconnell Stevenson"
        },
        "context": {
          "reference": "Encounter/Encounter-660",
          "display": "Wellness Visit"
        },
        "effectivePeriod": {
          "start": "1994-06-03T00:00:00-04:00",
          "end": "1994-06-03T00:00:00-04:00"
        },
        "performer": [
          {
            "reference": "Practitioner/Practitioner-2530",
            "display": "Terrence Ramirez McCormick MD"
          }
        ],
        "valueQuantity": {
          "value": 102.91840613054639,
          "unit": "mmHg"
        }
      },
      "request": {
        "method": "PUT",
        "url": "http://localhost:8080/cqf-ruler/baseDstu3/Observation/Observation-123815"
      }
    },
    {
      "fullUrl": "http://localhost:8080/cqf-ruler/baseDstu3/Observation/Observation-123816",
      "resource": {
        "resourceType": "Observation",
        "id": "Observation-123816",
        "status": "final",
        "code": {
          "coding": [
            {
              "system": "http://loinc.org",
              "code": "8462-4",
              "display": "Diastolic blood pressure"
            }
          ]
        },
        "subject": {
          "reference": "Patient/Patient-6493",
          "display": "Gabriel Oconnell Stevenson"
        },
        "context": {
          "reference": "Encounter/Encounter-660",
          "display": "Wellness Visit"
        },
        "effectivePeriod": {
          "start": "1994-06-03T00:00:00-04:00",
          "end": "1994-06-03T00:00:00-04:00"
        },
        "performer": [
          {
            "reference": "Practitioner/Practitioner-2530",
            "display": "Terrence Ramirez McCormick MD"
          }
        ],
        "valueQuantity": {
          "value": 84.38039535527717,
          "unit": "mmHg"
        }
      },
      "request": {
        "method": "PUT",
        "url": "http://localhost:8080/cqf-ruler/baseDstu3/Observation/Observation-123816"
      }
    },
    {
      "fullUrl": "http://localhost:8080/cqf-ruler/baseDstu3/Observation/Observation-123817",
      "resource": {
        "resourceType": "Observation",
        "id": "Observation-123817",
        "status": "final",
        "code": {
          "coding": [
            {
              "system": "http://loinc.org",
              "code": "8302-2",
              "display": "Body Height"
            }
          ]
        },
        "subject": {
          "reference": "Patient/Patient-6493",
          "display": "Gabriel Oconnell Stevenson"
        },
        "context": {
          "reference": "Encounter/Encounter-660",
          "display": "Wellness Visit"
        },
        "effectivePeriod": {
          "start": "1994-06-03T00:00:00-04:00",
          "end": "1994-06-03T00:00:00-04:00"
        },
        "performer": [
          {
            "reference": "Practitioner/Practitioner-2530",
            "display": "Terrence Ramirez McCormick MD"
          }
        ],
        "valueQuantity": {
          "value": 152.7,
          "unit": "cm"
        }
      },
      "request": {
        "method": "PUT",
        "url": "http://localhost:8080/cqf-ruler/baseDstu3/Observation/Observation-123817"
      }
    },
    {
      "fullUrl": "http://localhost:8080/cqf-ruler/baseDstu3/Observation/Observation-123818",
      "resource": {
        "resourceType": "Observation",
        "id": "Observation-123818",
        "status": "final",
        "code": {
          "coding": [
            {
              "system": "http://loinc.org",
              "code": "29463-7",
              "display": "Body Weight"
            }
          ]
        },
        "subject": {
          "reference": "Patient/Patient-6493",
          "display": "Gabriel Oconnell Stevenson"
        },
        "context": {
          "reference": "Encounter/Encounter-660",
          "display": "Wellness Visit"
        },
        "effectivePeriod": {
          "start": "1994-06-03T00:00:00-04:00",
          "end": "1994-06-03T00:00:00-04:00"
        },
        "performer": [
          {
            "reference": "Practitioner/Practitioner-2530",
            "display": "Terrence Ramirez McCormick MD"
          }
        ],
        "valueQuantity": {
          "value": 34.3,
          "unit": "kg"
        }
      },
      "request": {
        "method": "PUT",
        "url": "http://localhost:8080/cqf-ruler/baseDstu3/Observation/Observation-123818"
      }
    },
    {
      "fullUrl": "http://localhost:8080/cqf-ruler/baseDstu3/Observation/Observation-123819",
      "resource": {
        "resourceType": "Observation",
        "id": "Observation-123819",
        "status": "final",
        "code": {
          "coding": [
            {
              "system": "http://loinc.org",
              "code": "39156-5",
              "display": "Body Mass Index"
            }
          ]
        },
        "subject": {
          "reference": "Patient/Patient-6493",
          "display": "Gabriel Oconnell Stevenson"
        },
        "context": {
          "reference": "Encounter/Encounter-660",
          "display": "Wellness Visit"
        },
        "effectivePeriod": {
          "start": "1994-06-03T00:00:00-04:00",
          "end": "1994-06-03T00:00:00-04:00"
        },
        "performer": [
          {
            "reference": "Practitioner/Practitioner-2530",
            "display": "Terrence Ramirez McCormick MD"
          }
        ],
        "valueQuantity": {
          "value": 14.71011425427226,
          "unit": "kg/m2"
        }
      },
      "request": {
        "method": "PUT",
        "url": "http://localhost:8080/cqf-ruler/baseDstu3/Observation/Observation-123819"
      }
    },
    {
      "fullUrl": "http://localhost:8080/cqf-ruler/baseDstu3/Observation/Observation-123822",
      "resource": {
        "resourceType": "Observation",
        "id": "Observation-123822",
        "status": "final",
        "category": [
          {
            "coding": [
              {
                "system": "http://hl7.org/fhir/observation-category",
                "code": "vital-signs",
                "display": "vital-signs"
              }
            ]
          }
        ],
        "code": {
          "coding": [
            {
              "system": "http://loinc.org",
              "code": "55284-4",
              "display": "Blood Pressure"
            }
          ]
        },
        "subject": {
          "reference": "Patient/Patient-6493",
          "display": "Gabriel Oconnell Stevenson"
        },
        "context": {
          "reference": "Encounter/Encounter-660",
          "display": "Wellness Visit"
        },
        "effectivePeriod": {
          "start": "1994-06-03T00:00:00-04:00",
          "end": "1994-06-03T00:00:00-04:00"
        },
        "valueQuantity": {
          "value": 84.38039535527717,
          "unit": "mmHg"
        },
        "component": [
          {
            "code": {
              "coding": [
                {
                  "system": "http://loinc.org",
                  "code": "8480-6",
                  "display": "Systolic Blood Pressure"
                }
              ]
            }
          },
          {
            "code": {
              "coding": [
                {
                  "system": "http://loinc.org",
                  "code": "8462-4",
                  "display": "Diastolic Blood Pressure"
                }
              ]
            }
          }
        ]
      },
      "request": {
        "method": "PUT",
        "url": "http://localhost:8080/cqf-ruler/baseDstu3/Observation/Observation-123822"
      }
    },
    {
      "fullUrl": "http://localhost:8080/cqf-ruler/baseDstu3/Observation/Observation-123824",
      "resource": {
        "resourceType": "Observation",
        "id": "Observation-123824",
        "status": "final",
        "code": {
          "coding": [
            {
              "system": "http://loinc.org",
              "code": "8302-2",
              "display": "Height"
            }
          ]
        },
        "subject": {
          "reference": "Patient/Patient-6493",
          "display": "Gabriel Oconnell Stevenson"
        },
        "context": {
          "reference": "Encounter/Encounter-660",
          "display": "Wellness Visit"
        },
        "effectiveDateTime": "1994-06-03T00:00:00-04:00",
        "performer": [
          {
            "reference": "Practitioner/Practitioner-2530",
            "display": "Terrence Ramirez McCormick MD"
          }
        ],
        "valueQuantity": {
          "value": 152.7,
          "unit": "cm"
        }
      },
      "request": {
        "method": "PUT",
        "url": "http://localhost:8080/cqf-ruler/baseDstu3/Observation/Observation-123824"
      }
    },
    {
      "fullUrl": "http://localhost:8080/cqf-ruler/baseDstu3/Observation/Observation-123825",
      "resource": {
        "resourceType": "Observation",
        "id": "Observation-123825",
        "status": "final",
        "code": {
          "coding": [
            {
              "system": "http://loinc.org",
              "code": "29463-7",
              "display": "Weight"
            }
          ]
        },
        "subject": {
          "reference": "Patient/Patient-6493",
          "display": "Gabriel Oconnell Stevenson"
        },
        "context": {
          "reference": "Encounter/Encounter-660",
          "display": "Wellness Visit"
        },
        "effectiveDateTime": "1994-06-03T00:00:00-04:00",
        "performer": [
          {
            "reference": "Practitioner/Practitioner-2530",
            "display": "Terrence Ramirez McCormick MD"
          }
        ],
        "valueQuantity": {
          "value": 34.3,
          "unit": "kg"
        }
      },
      "request": {
        "method": "PUT",
        "url": "http://localhost:8080/cqf-ruler/baseDstu3/Observation/Observation-123825"
      }
    },
    {
      "fullUrl": "http://localhost:8080/cqf-ruler/baseDstu3/Observation/Observation-123826",
      "resource": {
        "resourceType": "Observation",
        "id": "Observation-123826",
        "status": "final",
        "code": {
          "coding": [
            {
              "system": "http://loinc.org",
              "code": "39156-5",
              "display": "BMI"
            }
          ]
        },
        "subject": {
          "reference": "Patient/Patient-6493",
          "display": "Gabriel Oconnell Stevenson"
        },
        "context": {
          "reference": "Encounter/Encounter-660",
          "display": "Wellness Visit"
        },
        "effectiveDateTime": "1994-06-03T00:00:00-04:00",
        "performer": [
          {
            "reference": "Practitioner/Practitioner-2530",
            "display": "Terrence Ramirez McCormick MD"
          }
        ],
        "valueQuantity": {
          "value": 14.71011425427226,
          "unit": "kg/m2"
        }
      },
      "request": {
        "method": "PUT",
        "url": "http://localhost:8080/cqf-ruler/baseDstu3/Observation/Observation-123826"
      }
    },
    {
      "fullUrl": "http://localhost:8080/cqf-ruler/baseDstu3/Observation/Observation-123827",
      "resource": {
        "resourceType": "Observation",
        "id": "Observation-123827",
        "status": "final",
        "code": {
          "coding": [
            {
              "system": "http://loinc.org",
              "code": "8310-5",
              "display": "Temperature"
            }
          ]
        },
        "subject": {
          "reference": "Patient/Patient-6493",
          "display": "Gabriel Oconnell Stevenson"
        },
        "context": {
          "reference": "Encounter/Encounter-660",
          "display": "Wellness Visit"
        },
        "effectiveDateTime": "1994-06-03T00:00:00-04:00",
        "performer": [
          {
            "reference": "Practitioner/Practitioner-2530",
            "display": "Terrence Ramirez McCormick MD"
          }
        ],
        "valueQuantity": {
          "value": 37.0,
          "unit": "C"
        }
      },
      "request": {
        "method": "PUT",
        "url": "http://localhost:8080/cqf-ruler/baseDstu3/Observation/Observation-123827"
      }
    },
    {
      "fullUrl": "http://localhost:8080/cqf-ruler/baseDstu3/Observation/Observation-123828",
      "resource": {
        "resourceType": "Observation",
        "id": "Observation-123828",
        "status": "final",
        "code": {
          "coding": [
            {
              "system": "http://loinc.org",
              "code": "8459-0",
              "display": "Systolic Blood Pressure"
            }
          ]
        },
        "subject": {
          "reference": "Patient/Patient-6493",
          "display": "Gabriel Oconnell Stevenson"
        },
        "context": {
          "reference": "Encounter/Encounter-660",
          "display": "Wellness Visit"
        },
        "effectiveDateTime": "1994-06-03T00:00:00-04:00",
        "performer": [
          {
            "reference": "Practitioner/Practitioner-2530",
            "display": "Terrence Ramirez McCormick MD"
          }
        ],
        "valueQuantity": {
          "value": 102.91840613054639,
          "unit": "mmHg"
        }
      },
      "request": {
        "method": "PUT",
        "url": "http://localhost:8080/cqf-ruler/baseDstu3/Observation/Observation-123828"
      }
    },
    {
      "fullUrl": "http://localhost:8080/cqf-ruler/baseDstu3/Observation/Observation-123829",
      "resource": {
        "resourceType": "Observation",
        "id": "Observation-123829",
        "status": "final",
        "code": {
          "coding": [
            {
              "system": "http://loinc.org",
              "code": "8453-3",
              "display": "Diastolic Blood Pressure"
            }
          ]
        },
        "subject": {
          "reference": "Patient/Patient-6493",
          "display": "Gabriel Oconnell Stevenson"
        },
        "context": {
          "reference": "Encounter/Encounter-660",
          "display": "Wellness Visit"
        },
        "effectiveDateTime": "1994-06-03T00:00:00-04:00",
        "performer": [
          {
            "reference": "Practitioner/Practitioner-2530",
            "display": "Terrence Ramirez McCormick MD"
          }
        ],
        "valueQuantity": {
          "value": 84.38039535527717,
          "unit": "mmHg"
        }
      },
      "request": {
        "method": "PUT",
        "url": "http://localhost:8080/cqf-ruler/baseDstu3/Observation/Observation-123829"
      }
    },
    {
      "fullUrl": "http://localhost:8080/cqf-ruler/baseDstu3/DiagnosticReport/DiagnosticReport-123823",
      "resource": {
        "resourceType": "DiagnosticReport",
        "id": "DiagnosticReport-123823",
        "status": "final",
        "code": {
          "coding": [
            {
              "system": "http://loinc.org",
              "code": "8716-3",
              "display": "Vital Signs Panel"
            }
          ]
        },
        "subject": {
          "reference": "Patient/Patient-6493",
          "display": "Gabriel Oconnell Stevenson"
        },
        "context": {
          "reference": "Encounter/Encounter-660",
          "display": "Wellness Visit"
        },
        "effectivePeriod": {
          "start": "1994-06-03T00:00:00-04:00",
          "end": "1994-06-03T00:00:00-04:00"
        },
        "issued": "1994-06-03T00:00:00.000-04:00",
        "result": [
          {
            "reference": "Observation/Observation-123824",
            "display": "Height"
          },
          {
            "reference": "Observation/Observation-123825",
            "display": "Weight"
          },
          {
            "reference": "Observation/Observation-123826",
            "display": "BMI"
          },
          {
            "reference": "Observation/Observation-123827",
            "display": "Temperature"
          },
          {
            "reference": "Observation/Observation-123828",
            "display": "Systolic Blood Pressure"
          },
          {
            "reference": "Observation/Observation-123829",
            "display": "Diastolic Blood Pressure"
          }
        ]
      },
      "request": {
        "method": "PUT",
        "url": "http://localhost:8080/cqf-ruler/baseDstu3/DiagnosticReport/DiagnosticReport-123823"
      }
    }
  ]
}