{
  "resourceType": "Bundle",
  "id": "Terry-Harvey-Waller-6520-Encounter-2708",
  "type": "transaction",
  "entry": [
    {
      "fullUrl": "http://localhost:8080/cqf-ruler/baseDstu3/Encounter/Encounter-2708",
      "resource": {
        "resourceType": "Encounter",
        "id": "Encounter-2708",
        "status": "finished",
        "class": {
          "system": "http://hl7.org/fhir/encounter-class",
          "code": "ambulatory",
          "display": "Ambulatory"
        },
        "subject": {
          "reference": "Patient/Patient-6520",
          "display": "Terry Harvey Waller"
        },
        "participant": [
          {
            "period": {
              "start": "2014-04-11T00:00:00-04:00",
              "end": "2014-04-11T00:00:00-04:00"
            },
            "individual": {
              "reference": "Practitioner/Practitioner-2534",
              "display": "Pearl Rita Dawson MD"
            }
          }
        ],
        "period": {
          "start": "2014-04-11T00:00:00-04:00",
          "end": "2014-04-11T00:00:00-04:00"
        },
        "location": [
          {
            "location": {
              "reference": "Location/Location-1001",
              "display": "Windward General Hospital"
            }
          }
        ],
        "serviceProvider": {
          "reference": "Organization/Organization-1001",
          "display": "Windward General Hospital"
        }
      },
      "request": {
        "method": "PUT",
        "url": "http://localhost:8080/cqf-ruler/baseDstu3/Encounter/Encounter-2708"
      }
    },
    {
      "fullUrl": "http://localhost:8080/cqf-ruler/baseDstu3/Condition/Condition-577198",
      "resource": {
        "resourceType": "Condition",
        "id": "Condition-577198",
        "clinicalStatus": "active",
        "verificationStatus": "confirmed",
        "code": {
          "coding": [
            {
              "system": "http://snomed.info/sct",
              "code": "44054006",
              "display": "Type 2 diabetes mellitus"
            }
          ]
        },
        "subject": {
          "reference": "Patient/Patient-6520",
          "display": "Terry Harvey Waller"
        },
        "context": {
          "reference": "Encounter/Encounter-2708",
          "display": "Get_Diabetes"
        },
        "onsetDateTime": "2014-04-11T00:00:00-04:00",
        "assertedDate": "2014-04-11T00:00:00-04:00",
        "asserter": {
          "reference": "Practitioner/Practitioner-2534",
          "display": "Pearl Rita Dawson MD"
        }
      },
      "request": {
        "method": "PUT",
        "url": "http://localhost:8080/cqf-ruler/baseDstu3/Condition/Condition-577198"
      }
    },
    {
      "fullUrl": "http://localhost:8080/cqf-ruler/baseDstu3/Observation/Observation-577200",
      "resource": {
        "resourceType": "Observation",
        "id": "Observation-577200",
        "status": "final",
        "code": {
          "coding": [
            {
              "system": "http://loinc.org",
              "code": "8302-2",
              "display": "Body Height"
            }
          ]
        },
        "subject": {
          "reference": "Patient/Patient-6520",
          "display": "Terry Harvey Waller"
        },
        "context": {
          "reference": "Encounter/Encounter-2708",
          "display": "Get_Diabetes"
        },
        "effectivePeriod": {
          "start": "2014-04-11T00:00:00-04:00",
          "end": "2014-04-11T00:00:00-04:00"
        },
        "performer": [
          {
            "reference": "Practitioner/Practitioner-2534",
            "display": "Pearl Rita Dawson MD"
          }
        ],
        "valueQuantity": {
          "value": 167.7,
          "unit": "cm"
        }
      },
      "request": {
        "method": "PUT",
        "url": "http://localhost:8080/cqf-ruler/baseDstu3/Observation/Observation-577200"
      }
    },
    {
      "fullUrl": "http://localhost:8080/cqf-ruler/baseDstu3/Observation/Observation-577201",
      "resource": {
        "resourceType": "Observation",
        "id": "Observation-577201",
        "status": "final",
        "code": {
          "coding": [
            {
              "system": "http://loinc.org",
              "code": "29463-7",
              "display": "Body Weight"
            }
          ]
        },
        "subject": {
          "reference": "Patient/Patient-6520",
          "display": "Terry Harvey Waller"
        },
        "context": {
          "reference": "Encounter/Encounter-2708",
          "display": "Get_Diabetes"
        },
        "effectivePeriod": {
          "start": "2014-04-11T00:00:00-04:00",
          "end": "2014-04-11T00:00:00-04:00"
        },
        "performer": [
          {
            "reference": "Practitioner/Practitioner-2534",
            "display": "Pearl Rita Dawson MD"
          }
        ],
        "valueQuantity": {
          "value": 84.68188583558454,
          "unit": "kg"
        }
      },
      "request": {
        "method": "PUT",
        "url": "http://localhost:8080/cqf-ruler/baseDstu3/Observation/Observation-577201"
      }
    },
    {
      "fullUrl": "http://localhost:8080/cqf-ruler/baseDstu3/Observation/Observation-577202",
      "resource": {
        "resourceType": "Observation",
        "id": "Observation-577202",
        "status": "final",
        "code": {
          "coding": [
            {
              "system": "http://loinc.org",
              "code": "39156-5",
              "display": "Body Mass Index"
            }
          ]
        },
        "subject": {
          "reference": "Patient/Patient-6520",
          "display": "Terry Harvey Waller"
        },
        "context": {
          "reference": "Encounter/Encounter-2708",
          "display": "Get_Diabetes"
        },
        "effectivePeriod": {
          "start": "2014-04-11T00:00:00-04:00",
          "end": "2014-04-11T00:00:00-04:00"
        },
        "performer": [
          {
            "reference": "Practitioner/Practitioner-2534",
            "display": "Pearl Rita Dawson MD"
          }
        ],
        "valueQuantity": {
          "value": 30.110945709262523,
          "unit": "kg/m2"
        }
      },
      "request": {
        "method": "PUT",
        "url": "http://localhost:8080/cqf-ruler/baseDstu3/Observation/Observation-577202"
      }
    },
    {
      "fullUrl": "http://localhost:8080/cqf-ruler/baseDstu3/Observation/Observation-577205",
      "resource": {
        "resourceType": "Observation",
        "id": "Observation-577205",
        "status": "final",
        "category": [
          {
            "coding": [
              {
                "system": "http://hl7.org/fhir/observation-category",
                "code": "vital-signs",
                "display": "vital-signs"
              }
            ]
          }
        ],
        "code": {
          "coding": [
            {
              "system": "http://loinc.org",
              "code": "55284-4",
              "display": "Blood Pressure"
            }
          ]
        },
        "subject": {
          "reference": "Patient/Patient-6520",
          "display": "Terry Harvey Waller"
        },
        "context": {
          "reference": "Encounter/Encounter-2708",
          "display": "Get_Diabetes"
        },
        "effectivePeriod": {
          "start": "2014-04-11T00:00:00-04:00",
          "end": "2014-04-11T00:00:00-04:00"
        },
        "valueQuantity": {
          "value": 78.10769151772243,
          "unit": "mmHg"
        },
        "component": [
          {
            "code": {
              "coding": [
                {
                  "system": "http://loinc.org",
                  "code": "8480-6",
                  "display": "Systolic Blood Pressure"
                }
              ]
            }
          },
          {
            "code": {
              "coding": [
                {
                  "system": "http://loinc.org",
                  "code": "8462-4",
                  "display": "Diastolic Blood Pressure"
                }
              ]
            }
          }
        ]
      },
      "request": {
        "method": "PUT",
        "url": "http://localhost:8080/cqf-ruler/baseDstu3/Observation/Observation-577205"
      }
    },
    {
      "fullUrl": "http://localhost:8080/cqf-ruler/baseDstu3/Observation/Observation-577206",
      "resource": {
        "resourceType": "Observation",
        "id": "Observation-577206",
        "status": "final",
        "code": {
          "coding": [
            {
              "system": "http://loinc.org",
              "code": "4548-4",
              "display": "Hemoglobin A1c/Hemoglobin.total in Blood"
            }
          ]
        },
        "subject": {
          "reference": "Patient/Patient-6520",
          "display": "Terry Harvey Waller"
        },
        "context": {
          "reference": "Encounter/Encounter-2708",
          "display": "Get_Diabetes"
        },
        "effectivePeriod": {
          "start": "2014-04-11T00:00:00-04:00",
          "end": "2014-04-11T00:00:00-04:00"
        },
        "performer": [
          {
            "reference": "Practitioner/Practitioner-2534",
            "display": "Pearl Rita Dawson MD"
          }
        ],
        "valueQuantity": {
          "value": 8.437127914037879,
          "unit": "%"
        }
      },
      "request": {
        "method": "PUT",
        "url": "http://localhost:8080/cqf-ruler/baseDstu3/Observation/Observation-577206"
      }
    },
    {
      "fullUrl": "http://localhost:8080/cqf-ruler/baseDstu3/Observation/Observation-577207",
      "resource": {
        "resourceType": "Observation",
        "id": "Observation-577207",
        "status": "final",
        "code": {
          "coding": [
            {
              "system": "http://loinc.org",
              "code": "2339-0",
              "display": "Glucose"
            }
          ]
        },
        "subject": {
          "reference": "Patient/Patient-6520",
          "display": "Terry Harvey Waller"
        },
        "context": {
          "reference": "Encounter/Encounter-2708",
          "display": "Get_Diabetes"
        },
        "effectivePeriod": {
          "start": "2014-04-11T00:00:00-04:00",
          "end": "2014-04-11T00:00:00-04:00"
        },
        "performer": [
          {
            "reference": "Practitioner/Practitioner-2534",
            "display": "Pearl Rita Dawson MD"
          }
        ],
        "valueQuantity": {
          "value": 171.45065630603216,
          "unit": "mg/dL"
        }
      },
      "request": {
        "method": "PUT",
        "url": "http://localhost:8080/cqf-ruler/baseDstu3/Observation/Observation-577207"
      }
    },
    {
      "fullUrl": "http://localhost:8080/cqf-ruler/baseDstu3/Observation/Observation-577208",
      "resource": {
        "resourceType": "Observation",
        "id": "Observation-577208",
        "status": "final",
        "code": {
          "coding": [
            {
              "system": "http://loinc.org",
              "code": "6299-2",
              "display": "Urea Nitrogen"
            }
          ]
        },
        "subject": {
          "reference": "Patient/Patient-6520",
          "display": "Terry Harvey Waller"
        },
        "context": {
          "reference": "Encounter/Encounter-2708",
          "display": "Get_Diabetes"
        },
        "effectivePeriod": {
          "start": "2014-04-11T00:00:00-04:00",
          "end": "2014-04-11T00:00:00-04:00"
        },
        "performer": [
          {
            "reference": "Practitioner/Practitioner-2534",
            "display": "Pearl Rita Dawson MD"
          }
        ],
        "valueQuantity": {
          "value": 18.620343547181527,
          "unit": "mg/dL"
        }
      },
      "request": {
        "method": "PUT",
        "url": "http://localhost:8080/cqf-ruler/baseDstu3/Observation/Observation-577208"
      }
    },
    {
      "fullUrl": "http://localhost:8080/cqf-ruler/baseDstu3/Observation/Observation-577209",
      "resource": {
        "resourceType": "Observation",
        "id": "Observation-577209",
        "status": "final",
        "code": {
          "coding": [
            {
              "system": "http://loinc.org",
              "code": "38483-4",
              "display": "Creatinine"
            }
          ]
        },
        "subject": {
          "reference": "Patient/Patient-6520",
          "display": "Terry Harvey Waller"
        },
        "context": {
          "reference": "Encounter/Encounter-2708",
          "display": "Get_Diabetes"
        },
        "effectivePeriod": {
          "start": "2014-04-11T00:00:00-04:00",
          "end": "2014-04-11T00:00:00-04:00"
        },
        "performer": [
          {
            "reference": "Practitioner/Practitioner-2534",
            "display": "Pearl Rita Dawson MD"
          }
        ],
        "valueQuantity": {
          "value": -0.61641910933016,
          "unit": "mg/dL"
        }
      },
      "request": {
        "method": "PUT",
        "url": "http://localhost:8080/cqf-ruler/baseDstu3/Observation/Observation-577209"
      }
    },
    {
      "fullUrl": "http://localhost:8080/cqf-ruler/baseDstu3/Observation/Observation-577210",
      "resource": {
        "resourceType": "Observation",
        "id": "Observation-577210",
        "status": "final",
        "code": {
          "coding": [
            {
              "system": "http://loinc.org",
              "code": "49765-1",
              "display": "Calcium"
            }
          ]
        },
        "subject": {
          "reference": "Patient/Patient-6520",
          "display": "Terry Harvey Waller"
        },
        "context": {
          "reference": "Encounter/Encounter-2708",
          "display": "Get_Diabetes"
        },
        "effectivePeriod": {
          "start": "2014-04-11T00:00:00-04:00",
          "end": "2014-04-11T00:00:00-04:00"
        },
        "performer": [
          {
            "reference": "Practitioner/Practitioner-2534",
            "display": "Pearl Rita Dawson MD"
          }
        ],
        "valueQuantity": {
          "value": 3.380954555987661,
          "unit": "mmol/L"
        }
      },
      "request": {
        "method": "PUT",
        "url": "http://localhost:8080/cqf-ruler/baseDstu3/Observation/Observation-577210"
      }
    },
    {
      "fullUrl": "http://localhost:8080/cqf-ruler/baseDstu3/Observation/Observation-577211",
      "resource": {
        "resourceType": "Observation",
        "id": "Observation-577211",
        "status": "final",
        "code": {
          "coding": [
            {
              "system": "http://loinc.org",
              "code": "2947-0",
              "display": "Sodium"
            }
          ]
        },
        "subject": {
          "reference": "Patient/Patient-6520",
          "display": "Terry Harvey Waller"
        },
        "context": {
          "reference": "Encounter/Encounter-2708",
          "display": "Get_Diabetes"
        },
        "effectivePeriod": {
          "start": "2014-04-11T00:00:00-04:00",
          "end": "2014-04-11T00:00:00-04:00"
        },
        "performer": [
          {
            "reference": "Practitioner/Practitioner-2534",
            "display": "Pearl Rita Dawson MD"
          }
        ],
        "valueQuantity": {
          "value": 140.00359479496268,
          "unit": "mmol/L"
        }
      },
      "request": {
        "method": "PUT",
        "url": "http://localhost:8080/cqf-ruler/baseDstu3/Observation/Observation-577211"
      }
    },
    {
      "fullUrl": "http://localhost:8080/cqf-ruler/baseDstu3/Observation/Observation-577212",
      "resource": {
        "resourceType": "Observation",
        "id": "Observation-577212",
        "status": "final",
        "code": {
          "coding": [
            {
              "system": "http://loinc.org",
              "code": "6298-4",
              "display": "Potassium"
            }
          ]
        },
        "subject": {
          "reference": "Patient/Patient-6520",
          "display": "Terry Harvey Waller"
        },
        "context": {
          "reference": "Encounter/Encounter-2708",
          "display": "Get_Diabetes"
        },
        "effectivePeriod": {
          "start": "2014-04-11T00:00:00-04:00",
          "end": "2014-04-11T00:00:00-04:00"
        },
        "performer": [
          {
            "reference": "Practitioner/Practitioner-2534",
            "display": "Pearl Rita Dawson MD"
          }
        ],
        "valueQuantity": {
          "value": 2.911189004179201,
          "unit": "mmol/L"
        }
      },
      "request": {
        "method": "PUT",
        "url": "http://localhost:8080/cqf-ruler/baseDstu3/Observation/Observation-577212"
      }
    },
    {
      "fullUrl": "http://localhost:8080/cqf-ruler/baseDstu3/Observation/Observation-577213",
      "resource": {
        "resourceType": "Observation",
        "id": "Observation-577213",
        "status": "final",
        "code": {
          "coding": [
            {
              "system": "http://loinc.org",
              "code": "2069-3",
              "display": "Chloride"
            }
          ]
        },
        "subject": {
          "reference": "Patient/Patient-6520",
          "display": "Terry Harvey Waller"
        },
        "context": {
          "reference": "Encounter/Encounter-2708",
          "display": "Get_Diabetes"
        },
        "effectivePeriod": {
          "start": "2014-04-11T00:00:00-04:00",
          "end": "2014-04-11T00:00:00-04:00"
        },
        "performer": [
          {
            "reference": "Practitioner/Practitioner-2534",
            "display": "Pearl Rita Dawson MD"
          }
        ],
        "valueQuantity": {
          "value": 101.02382720281176,
          "unit": "mmol/L"
        }
      },
      "request": {
        "method": "PUT",
        "url": "http://localhost:8080/cqf-ruler/baseDstu3/Observation/Observation-577213"
      }
    },
    {
      "fullUrl": "http://localhost:8080/cqf-ruler/baseDstu3/Observation/Observation-577214",
      "resource": {
        "resourceType": "Observation",
        "id": "Observation-577214",
        "status": "final",
        "code": {
          "coding": [
            {
              "system": "http://loinc.org",
              "code": "20565-8",
              "display": "Carbon Dioxide"
            }
          ]
        },
        "subject": {
          "reference": "Patient/Patient-6520",
          "display": "Terry Harvey Waller"
        },
        "context": {
          "reference": "Encounter/Encounter-2708",
          "display": "Get_Diabetes"
        },
        "effectivePeriod": {
          "start": "2014-04-11T00:00:00-04:00",
          "end": "2014-04-11T00:00:00-04:00"
        },
        "performer": [
          {
            "reference": "Practitioner/Practitioner-2534",
            "display": "Pearl Rita Dawson MD"
          }
        ],
        "valueQuantity": {
          "value": 21.910616896566,
          "unit": "mmol/L"
        }
      },
      "request": {
        "method": "PUT",
        "url": "http://localhost:8080/cqf-ruler/baseDstu3/Observation/Observation-577214"
      }
    },
    {
      "fullUrl": "http://localhost:8080/cqf-ruler/baseDstu3/DiagnosticReport/DiagnosticReport-577215",
      "resource": {
        "resourceType": "DiagnosticReport",
        "id": "DiagnosticReport-577215",
        "status": "final",
        "code": {
          "coding": [
            {
              "system": "http://loinc.org",
              "code": "51990-0",
              "display": "Basic Metabolic Panel"
            }
          ]
        },
        "subject": {
          "reference": "Patient/Patient-6520",
          "display": "Terry Harvey Waller"
        },
        "context": {
          "reference": "Encounter/Encounter-2708",
          "display": "Get_Diabetes"
        },
        "effectivePeriod": {
          "start": "2014-04-11T00:00:00-04:00",
          "end": "2014-04-11T00:00:00-04:00"
        },
        "issued": "2014-04-11T00:00:00.000-04:00",
        "result": [
          {
            "reference": "Observation/Observation-577207",
            "display": "Record_Glucose"
          },
          {
            "reference": "Observation/Observation-577208",
            "display": "Record_UreaNitrogen"
          },
          {
            "reference": "Observation/Observation-577209",
            "display": "Record_Creatinine"
          },
          {
            "reference": "Observation/Observation-577210",
            "display": "Record_Calcium"
          },
          {
            "reference": "Observation/Observation-577211",
            "display": "Record_Sodium"
          },
          {
            "reference": "Observation/Observation-577212",
            "display": "Record_Potassium"
          },
          {
            "reference": "Observation/Observation-577213",
            "display": "Record_Chloride"
          },
          {
            "reference": "Observation/Observation-577214",
            "display": "Record_CO2"
          }
        ]
      },
      "request": {
        "method": "PUT",
        "url": "http://localhost:8080/cqf-ruler/baseDstu3/DiagnosticReport/DiagnosticReport-577215"
      }
    },
    {
      "fullUrl": "http://localhost:8080/cqf-ruler/baseDstu3/Observation/Observation-577216",
      "resource": {
        "resourceType": "Observation",
        "id": "Observation-577216",
        "status": "final",
        "code": {
          "coding": [
            {
              "system": "http://loinc.org",
              "code": "2093-3",
              "display": "Total Cholesterol"
            }
          ]
        },
        "subject": {
          "reference": "Patient/Patient-6520",
          "display": "Terry Harvey Waller"
        },
        "context": {
          "reference": "Encounter/Encounter-2708",
          "display": "Get_Diabetes"
        },
        "effectivePeriod": {
          "start": "2014-04-11T00:00:00-04:00",
          "end": "2014-04-11T00:00:00-04:00"
        },
        "performer": [
          {
            "reference": "Practitioner/Practitioner-2534",
            "display": "Pearl Rita Dawson MD"
          }
        ],
        "valueQuantity": {
          "value": 169.37000838105308,
          "unit": "mg/dL"
        }
      },
      "request": {
        "method": "PUT",
        "url": "http://localhost:8080/cqf-ruler/baseDstu3/Observation/Observation-577216"
      }
    },
    {
      "fullUrl": "http://localhost:8080/cqf-ruler/baseDstu3/Observation/Observation-577217",
      "resource": {
        "resourceType": "Observation",
        "id": "Observation-577217",
        "status": "final",
        "code": {
          "coding": [
            {
              "system": "http://loinc.org",
              "code": "2571-8",
              "display": "Triglycerides"
            }
          ]
        },
        "subject": {
          "reference": "Patient/Patient-6520",
          "display": "Terry Harvey Waller"
        },
        "context": {
          "reference": "Encounter/Encounter-2708",
          "display": "Get_Diabetes"
        },
        "effectivePeriod": {
          "start": "2014-04-11T00:00:00-04:00",
          "end": "2014-04-11T00:00:00-04:00"
        },
        "performer": [
          {
            "reference": "Practitioner/Practitioner-2534",
            "display": "Pearl Rita Dawson MD"
          }
        ],
        "valueQuantity": {
          "value": 58.437077211119586,
          "unit": "mg/dL"
        }
      },
      "request": {
        "method": "PUT",
        "url": "http://localhost:8080/cqf-ruler/baseDstu3/Observation/Observation-577217"
      }
    },
    {
      "fullUrl": "http://localhost:8080/cqf-ruler/baseDstu3/Observation/Observation-577218",
      "resource": {
        "resourceType": "Observation",
        "id": "Observation-577218",
        "status": "final",
        "code": {
          "coding": [
            {
              "system": "http://loinc.org",
              "code": "18262-6",
              "display": "Low Density Lipoprotein Cholesterol"
            }
          ]
        },
        "subject": {
          "reference": "Patient/Patient-6520",
          "display": "Terry Harvey Waller"
        },
        "context": {
          "reference": "Encounter/Encounter-2708",
          "display": "Get_Diabetes"
        },
        "effectivePeriod": {
          "start": "2014-04-11T00:00:00-04:00",
          "end": "2014-04-11T00:00:00-04:00"
        },
        "performer": [
          {
            "reference": "Practitioner/Practitioner-2534",
            "display": "Pearl Rita Dawson MD"
          }
        ],
        "valueQuantity": {
          "value": 97.4799037323453,
          "unit": "mg/dL"
        }
      },
      "request": {
        "method": "PUT",
        "url": "http://localhost:8080/cqf-ruler/baseDstu3/Observation/Observation-577218"
      }
    },
    {
      "fullUrl": "http://localhost:8080/cqf-ruler/baseDstu3/Observation/Observation-577219",
      "resource": {
        "resourceType": "Observation",
        "id": "Observation-577219",
        "status": "final",
        "code": {
          "coding": [
            {
              "system": "http://loinc.org",
              "code": "2085-9",
              "display": "High Density Lipoprotein Cholesterol"
            }
          ]
        },
        "subject": {
          "reference": "Patient/Patient-6520",
          "display": "Terry Harvey Waller"
        },
        "context": {
          "reference": "Encounter/Encounter-2708",
          "display": "Get_Diabetes"
        },
        "effectivePeriod": {
          "start": "2014-04-11T00:00:00-04:00",
          "end": "2014-04-11T00:00:00-04:00"
        },
        "performer": [
          {
            "reference": "Practitioner/Practitioner-2534",
            "display": "Pearl Rita Dawson MD"
          }
        ],
        "valueQuantity": {
          "value": 60.202689206483875,
          "unit": "mg/dL"
        }
      },
      "request": {
        "method": "PUT",
        "url": "http://localhost:8080/cqf-ruler/baseDstu3/Observation/Observation-577219"
      }
    },
    {
      "fullUrl": "http://localhost:8080/cqf-ruler/baseDstu3/DiagnosticReport/DiagnosticReport-577220",
      "resource": {
        "resourceType": "DiagnosticReport",
        "id": "DiagnosticReport-577220",
        "status": "final",
        "code": {
          "coding": [
            {
              "system": "http://loinc.org",
              "code": "57698-3",
              "display": "Lipid Panel"
            }
          ]
        },
        "subject": {
          "reference": "Patient/Patient-6520",
          "display": "Terry Harvey Waller"
        },
        "context": {
          "reference": "Encounter/Encounter-2708",
          "display": "Get_Diabetes"
        },
        "effectivePeriod": {
          "start": "2014-04-11T00:00:00-04:00",
          "end": "2014-04-11T00:00:00-04:00"
        },
        "issued": "2014-04-11T00:00:00.000-04:00",
        "result": [
          {
            "reference": "Observation/Observation-577216",
            "display": "Record_Cholesterol"
          },
          {
            "reference": "Observation/Observation-577217",
            "display": "Record_Triglycerides"
          },
          {
            "reference": "Observation/Observation-577218",
            "display": "Record_LDL"
          },
          {
            "reference": "Observation/Observation-577219",
            "display": "Record_HDL"
          }
        ]
      },
      "request": {
        "method": "PUT",
        "url": "http://localhost:8080/cqf-ruler/baseDstu3/DiagnosticReport/DiagnosticReport-577220"
      }
    },
    {
      "fullUrl": "http://localhost:8080/cqf-ruler/baseDstu3/CarePlan/CarePlan-577221",
      "resource": {
        "resourceType": "CarePlan",
        "id": "CarePlan-577221",
        "status": "active",
        "category": [
          {
            "coding": [
              {
                "system": "http://snomed.info/sct",
                "code": "698360004",
                "display": "Diabetes self management plan"
              }
            ]
          }
        ],
        "subject": {
          "reference": "Patient/Patient-6520",
          "display": "Terry Harvey Waller"
        },
        "context": {
          "reference": "Encounter/Encounter-2708",
          "display": "Get_Diabetes"
        },
        "author": [
          {
            "reference": "Practitioner/Practitioner-2534",
            "display": "Pearl Rita Dawson MD"
          }
        ]
      },
      "request": {
        "method": "PUT",
        "url": "http://localhost:8080/cqf-ruler/baseDstu3/CarePlan/CarePlan-577221"
      }
    },
    {
      "fullUrl": "http://localhost:8080/cqf-ruler/baseDstu3/MedicationRequest/MedicationRequest-577222",
      "resource": {
        "resourceType": "MedicationRequest",
        "id": "MedicationRequest-577222",
        "status": "active",
        "intent": "order",
        "medicationCodeableConcept": {
          "coding": [
            {
              "system": "http://www.nlm.nih.gov/research/umls/rxnorm",
              "code": "860975",
              "display": "24 HR Metformin hydrochloride 500 MG Extended Release Oral Tablet"
            }
          ]
        },
        "subject": {
          "reference": "Patient/Patient-6520",
          "display": "Terry Harvey Waller"
        },
        "context": {
          "reference": "Encounter/Encounter-2708",
          "display": "Get_Diabetes"
        },
        "authoredOn": "2014-04-11T00:00:00-04:00",
        "reasonCode": [
          {
            "coding": [
              {
                "system": "SNOMED-CT",
                "code": "44054006",
                "display": "Type 2 diabetes mellitus"
              }
            ]
          }
        ],
        "dosageInstruction": [
          {
            "timing": {
              "repeat": {
                "frequency": 1
              }
            },
            "doseQuantity": {
              "value": 1
            }
          }
        ],
        "dispenseRequest": {
          "validityPeriod": {
            "start": "2014-04-11T00:00:00-04:00",
            "end": "2014-04-11T00:00:00-04:00"
          }
        }
      },
      "request": {
        "method": "PUT",
        "url": "http://localhost:8080/cqf-ruler/baseDstu3/MedicationRequest/MedicationRequest-577222"
      }
    },
    {
      "fullUrl": "http://localhost:8080/cqf-ruler/baseDstu3/Observation/Observation-577225",
      "resource": {
        "resourceType": "Observation",
        "id": "Observation-577225",
        "status": "final",
        "code": {
          "coding": [
            {
              "system": "http://loinc.org",
              "code": "8302-2",
              "display": "Height"
            }
          ]
        },
        "subject": {
          "reference": "Patient/Patient-6520",
          "display": "Terry Harvey Waller"
        },
        "context": {
          "reference": "Encounter/Encounter-2708",
          "display": "Get_Diabetes"
        },
        "effectiveDateTime": "2014-04-11T00:00:00-04:00",
        "performer": [
          {
            "reference": "Practitioner/Practitioner-2534",
            "display": "Pearl Rita Dawson MD"
          }
        ],
        "valueQuantity": {
          "value": 167.7,
          "unit": "cm"
        }
      },
      "request": {
        "method": "PUT",
        "url": "http://localhost:8080/cqf-ruler/baseDstu3/Observation/Observation-577225"
      }
    },
    {
      "fullUrl": "http://localhost:8080/cqf-ruler/baseDstu3/Observation/Observation-577226",
      "resource": {
        "resourceType": "Observation",
        "id": "Observation-577226",
        "status": "final",
        "code": {
          "coding": [
            {
              "system": "http://loinc.org",
              "code": "29463-7",
              "display": "Weight"
            }
          ]
        },
        "subject": {
          "reference": "Patient/Patient-6520",
          "display": "Terry Harvey Waller"
        },
        "context": {
          "reference": "Encounter/Encounter-2708",
          "display": "Get_Diabetes"
        },
        "effectiveDateTime": "2014-04-11T00:00:00-04:00",
        "performer": [
          {
            "reference": "Practitioner/Practitioner-2534",
            "display": "Pearl Rita Dawson MD"
          }
        ],
        "valueQuantity": {
          "value": 84.68188583558454,
          "unit": "kg"
        }
      },
      "request": {
        "method": "PUT",
        "url": "http://localhost:8080/cqf-ruler/baseDstu3/Observation/Observation-577226"
      }
    },
    {
      "fullUrl": "http://localhost:8080/cqf-ruler/baseDstu3/Observation/Observation-577227",
      "resource": {
        "resourceType": "Observation",
        "id": "Observation-577227",
        "status": "final",
        "code": {
          "coding": [
            {
              "system": "http://loinc.org",
              "code": "39156-5",
              "display": "BMI"
            }
          ]
        },
        "subject": {
          "reference": "Patient/Patient-6520",
          "display": "Terry Harvey Waller"
        },
        "context": {
          "reference": "Encounter/Encounter-2708",
          "display": "Get_Diabetes"
        },
        "effectiveDateTime": "2014-04-11T00:00:00-04:00",
        "performer": [
          {
            "reference": "Practitioner/Practitioner-2534",
            "display": "Pearl Rita Dawson MD"
          }
        ],
        "valueQuantity": {
          "value": 30.110945709262523,
          "unit": "kg/m2"
        }
      },
      "request": {
        "method": "PUT",
        "url": "http://localhost:8080/cqf-ruler/baseDstu3/Observation/Observation-577227"
      }
    },
    {
      "fullUrl": "http://localhost:8080/cqf-ruler/baseDstu3/Observation/Observation-577228",
      "resource": {
        "resourceType": "Observation",
        "id": "Observation-577228",
        "status": "final",
        "code": {
          "coding": [
            {
              "system": "http://loinc.org",
              "code": "8310-5",
              "display": "Temperature"
            }
          ]
        },
        "subject": {
          "reference": "Patient/Patient-6520",
          "display": "Terry Harvey Waller"
        },
        "context": {
          "reference": "Encounter/Encounter-2708",
          "display": "Get_Diabetes"
        },
        "effectiveDateTime": "2014-04-11T00:00:00-04:00",
        "performer": [
          {
            "reference": "Practitioner/Practitioner-2534",
            "display": "Pearl Rita Dawson MD"
          }
        ],
        "valueQuantity": {
          "value": 37.0,
          "unit": "C"
        }
      },
      "request": {
        "method": "PUT",
        "url": "http://localhost:8080/cqf-ruler/baseDstu3/Observation/Observation-577228"
      }
    },
    {
      "fullUrl": "http://localhost:8080/cqf-ruler/baseDstu3/Observation/Observation-577229",
      "resource": {
        "resourceType": "Observation",
        "id": "Observation-577229",
        "status": "final",
        "code": {
          "coding": [
            {
              "system": "http://loinc.org",
              "code": "8459-0",
              "display": "Systolic Blood Pressure"
            }
          ]
        },
        "subject": {
          "reference": "Patient/Patient-6520",
          "display": "Terry Harvey Waller"
        },
        "context": {
          "reference": "Encounter/Encounter-2708",
          "display": "Get_Diabetes"
        },
        "effectiveDateTime": "2014-04-11T00:00:00-04:00",
        "performer": [
          {
            "reference": "Practitioner/Practitioner-2534",
            "display": "Pearl Rita Dawson MD"
          }
        ],
        "valueQuantity": {
          "value": 123.03871722012278,
          "unit": "mmHg"
        }
      },
      "request": {
        "method": "PUT",
        "url": "http://localhost:8080/cqf-ruler/baseDstu3/Observation/Observation-577229"
      }
    },
    {
      "fullUrl": "http://localhost:8080/cqf-ruler/baseDstu3/Observation/Observation-577230",
      "resource": {
        "resourceType": "Observation",
        "id": "Observation-577230",
        "status": "final",
        "code": {
          "coding": [
            {
              "system": "http://loinc.org",
              "code": "8453-3",
              "display": "Diastolic Blood Pressure"
            }
          ]
        },
        "subject": {
          "reference": "Patient/Patient-6520",
          "display": "Terry Harvey Waller"
        },
        "context": {
          "reference": "Encounter/Encounter-2708",
          "display": "Get_Diabetes"
        },
        "effectiveDateTime": "2014-04-11T00:00:00-04:00",
        "performer": [
          {
            "reference": "Practitioner/Practitioner-2534",
            "display": "Pearl Rita Dawson MD"
          }
        ],
        "valueQuantity": {
          "value": 78.10769151772243,
          "unit": "mmHg"
        }
      },
      "request": {
        "method": "PUT",
        "url": "http://localhost:8080/cqf-ruler/baseDstu3/Observation/Observation-577230"
      }
    },
    {
      "fullUrl": "http://localhost:8080/cqf-ruler/baseDstu3/DiagnosticReport/DiagnosticReport-577224",
      "resource": {
        "resourceType": "DiagnosticReport",
        "id": "DiagnosticReport-577224",
        "status": "final",
        "code": {
          "coding": [
            {
              "system": "http://loinc.org",
              "code": "8716-3",
              "display": "Vital Signs Panel"
            }
          ]
        },
        "subject": {
          "reference": "Patient/Patient-6520",
          "display": "Terry Harvey Waller"
        },
        "context": {
          "reference": "Encounter/Encounter-2708",
          "display": "Get_Diabetes"
        },
        "effectivePeriod": {
          "start": "2014-04-11T00:00:00-04:00",
          "end": "2014-04-11T00:00:00-04:00"
        },
        "issued": "2014-04-11T00:00:00.000-04:00",
        "result": [
          {
            "reference": "Observation/Observation-577225",
            "display": "Height"
          },
          {
            "reference": "Observation/Observation-577226",
            "display": "Weight"
          },
          {
            "reference": "Observation/Observation-577227",
            "display": "BMI"
          },
          {
            "reference": "Observation/Observation-577228",
            "display": "Temperature"
          },
          {
            "reference": "Observation/Observation-577229",
            "display": "Systolic Blood Pressure"
          },
          {
            "reference": "Observation/Observation-577230",
            "display": "Diastolic Blood Pressure"
          }
        ]
      },
      "request": {
        "method": "PUT",
        "url": "http://localhost:8080/cqf-ruler/baseDstu3/DiagnosticReport/DiagnosticReport-577224"
      }
    }
  ]
}