{
  "resourceType": "Bundle",
  "id": "Terry-Harvey-Waller-6520-Encounter-2845",
  "type": "transaction",
  "entry": [
    {
      "fullUrl": "http://localhost:8080/cqf-ruler/baseDstu3/Encounter/Encounter-2845",
      "resource": {
        "resourceType": "Encounter",
        "id": "Encounter-2845",
        "status": "finished",
        "class": {
          "system": "http://hl7.org/fhir/encounter-class",
          "code": "ambulatory",
          "display": "Ambulatory"
        },
        "subject": {
          "reference": "Patient/Patient-6520",
          "display": "Terry Harvey Waller"
        },
        "participant": [
          {
            "period": {
              "start": "2015-03-11T14:00:00-04:00",
              "end": "2015-03-11T14:00:00-04:00"
            },
            "individual": {
              "reference": "Practitioner/Practitioner-2517",
              "display": "Cathy Shannon Warner MD"
            }
          }
        ],
        "period": {
          "start": "2015-03-11T14:00:00-04:00",
          "end": "2015-03-11T14:00:00-04:00"
        },
        "location": [
          {
            "location": {
              "reference": "Location/Location-1001",
              "display": "Windward General Hospital"
            }
          }
        ],
        "serviceProvider": {
          "reference": "Organization/Organization-1001",
          "display": "Windward General Hospital"
        }
      },
      "request": {
        "method": "PUT",
        "url": "http://localhost:8080/cqf-ruler/baseDstu3/Encounter/Encounter-2845"
      }
    },
    {
      "fullUrl": "http://localhost:8080/cqf-ruler/baseDstu3/MedicationRequest/MedicationRequest-602223",
      "resource": {
        "resourceType": "MedicationRequest",
        "id": "MedicationRequest-602223",
        "status": "active",
        "intent": "order",
        "medicationCodeableConcept": {
          "coding": [
            {
              "system": "http://www.nlm.nih.gov/research/umls/rxnorm",
              "code": "860975",
              "display": "24 HR Metformin hydrochloride 500 MG Extended Release Oral Tablet"
            }
          ]
        },
        "subject": {
          "reference": "Patient/Patient-6520",
          "display": "Terry Harvey Waller"
        },
        "context": {
          "reference": "Encounter/Encounter-2845",
          "display": "Followup_Visit"
        },
        "authoredOn": "2015-03-11T14:00:00-04:00",
        "reasonCode": [
          {
            "coding": [
              {
                "system": "SNOMED-CT",
                "code": "44054006",
                "display": "Type 2 diabetes mellitus"
              }
            ]
          }
        ],
        "dosageInstruction": [
          {
            "timing": {
              "repeat": {
                "frequency": 1
              }
            },
            "doseQuantity": {
              "value": 1
            }
          }
        ],
        "dispenseRequest": {
          "validityPeriod": {
            "start": "2015-03-11T14:00:00-04:00",
            "end": "2015-03-11T14:00:00-04:00"
          }
        }
      },
      "request": {
        "method": "PUT",
        "url": "http://localhost:8080/cqf-ruler/baseDstu3/MedicationRequest/MedicationRequest-602223"
      }
    },
    {
      "fullUrl": "http://localhost:8080/cqf-ruler/baseDstu3/MedicationRequest/MedicationRequest-602224",
      "resource": {
        "resourceType": "MedicationRequest",
        "id": "MedicationRequest-602224",
        "status": "active",
        "intent": "order",
        "medicationCodeableConcept": {
          "coding": [
            {
              "system": "http://www.nlm.nih.gov/research/umls/rxnorm",
              "code": "1373463",
              "display": "canagliflozin 100 MG Oral Tablet"
            }
          ]
        },
        "subject": {
          "reference": "Patient/Patient-6520",
          "display": "Terry Harvey Waller"
        },
        "context": {
          "reference": "Encounter/Encounter-2845",
          "display": "Followup_Visit"
        },
        "authoredOn": "2015-03-11T14:00:00-04:00",
        "reasonCode": [
          {
            "coding": [
              {
                "system": "SNOMED-CT",
                "code": "44054006",
                "display": "Type 2 diabetes mellitus"
              }
            ]
          }
        ],
        "dosageInstruction": [
          {
            "timing": {
              "repeat": {
                "frequency": 1
              }
            },
            "doseQuantity": {
              "value": 1
            }
          }
        ],
        "dispenseRequest": {
          "validityPeriod": {
            "start": "2015-03-11T14:00:00-04:00",
            "end": "2015-03-11T14:00:00-04:00"
          }
        }
      },
      "request": {
        "method": "PUT",
        "url": "http://localhost:8080/cqf-ruler/baseDstu3/MedicationRequest/MedicationRequest-602224"
      }
    },
    {
      "fullUrl": "http://localhost:8080/cqf-ruler/baseDstu3/MedicationRequest/MedicationRequest-602225",
      "resource": {
        "resourceType": "MedicationRequest",
        "id": "MedicationRequest-602225",
        "status": "active",
        "intent": "order",
        "medicationCodeableConcept": {
          "coding": [
            {
              "system": "http://www.nlm.nih.gov/research/umls/rxnorm",
              "code": "897122",
              "display": "3 ML liraglutide 6 MG/ML Pen Injector"
            }
          ]
        },
        "subject": {
          "reference": "Patient/Patient-6520",
          "display": "Terry Harvey Waller"
        },
        "context": {
          "reference": "Encounter/Encounter-2845",
          "display": "Followup_Visit"
        },
        "authoredOn": "2015-03-11T14:00:00-04:00",
        "reasonCode": [
          {
            "coding": [
              {
                "system": "SNOMED-CT",
                "code": "44054006",
                "display": "Type 2 diabetes mellitus"
              }
            ]
          }
        ],
        "dosageInstruction": [
          {
            "timing": {
              "repeat": {
                "frequency": 1
              }
            },
            "doseQuantity": {
              "value": 1
            }
          }
        ],
        "dispenseRequest": {
          "validityPeriod": {
            "start": "2015-03-11T14:00:00-04:00",
            "end": "2015-03-11T14:00:00-04:00"
          }
        }
      },
      "request": {
        "method": "PUT",
        "url": "http://localhost:8080/cqf-ruler/baseDstu3/MedicationRequest/MedicationRequest-602225"
      }
    },
    {
      "fullUrl": "http://localhost:8080/cqf-ruler/baseDstu3/Observation/Observation-602228",
      "resource": {
        "resourceType": "Observation",
        "id": "Observation-602228",
        "status": "final",
        "code": {
          "coding": [
            {
              "system": "http://loinc.org",
              "code": "8302-2",
              "display": "Height"
            }
          ]
        },
        "subject": {
          "reference": "Patient/Patient-6520",
          "display": "Terry Harvey Waller"
        },
        "context": {
          "reference": "Encounter/Encounter-2845",
          "display": "Followup_Visit"
        },
        "effectiveDateTime": "2015-03-11T14:00:00-04:00",
        "performer": [
          {
            "reference": "Practitioner/Practitioner-2517",
            "display": "Cathy Shannon Warner MD"
          }
        ],
        "valueQuantity": {
          "value": 167.7,
          "unit": "cm"
        }
      },
      "request": {
        "method": "PUT",
        "url": "http://localhost:8080/cqf-ruler/baseDstu3/Observation/Observation-602228"
      }
    },
    {
      "fullUrl": "http://localhost:8080/cqf-ruler/baseDstu3/Observation/Observation-602229",
      "resource": {
        "resourceType": "Observation",
        "id": "Observation-602229",
        "status": "final",
        "code": {
          "coding": [
            {
              "system": "http://loinc.org",
              "code": "29463-7",
              "display": "Weight"
            }
          ]
        },
        "subject": {
          "reference": "Patient/Patient-6520",
          "display": "Terry Harvey Waller"
        },
        "context": {
          "reference": "Encounter/Encounter-2845",
          "display": "Followup_Visit"
        },
        "effectiveDateTime": "2015-03-11T14:00:00-04:00",
        "performer": [
          {
            "reference": "Practitioner/Practitioner-2517",
            "display": "Cathy Shannon Warner MD"
          }
        ],
        "valueQuantity": {
          "value": 84.96490718246642,
          "unit": "kg"
        }
      },
      "request": {
        "method": "PUT",
        "url": "http://localhost:8080/cqf-ruler/baseDstu3/Observation/Observation-602229"
      }
    },
    {
      "fullUrl": "http://localhost:8080/cqf-ruler/baseDstu3/Observation/Observation-602230",
      "resource": {
        "resourceType": "Observation",
        "id": "Observation-602230",
        "status": "final",
        "code": {
          "coding": [
            {
              "system": "http://loinc.org",
              "code": "39156-5",
              "display": "BMI"
            }
          ]
        },
        "subject": {
          "reference": "Patient/Patient-6520",
          "display": "Terry Harvey Waller"
        },
        "context": {
          "reference": "Encounter/Encounter-2845",
          "display": "Followup_Visit"
        },
        "effectiveDateTime": "2015-03-11T14:00:00-04:00",
        "performer": [
          {
            "reference": "Practitioner/Practitioner-2517",
            "display": "Cathy Shannon Warner MD"
          }
        ],
        "valueQuantity": {
          "value": 30.21158164015179,
          "unit": "kg/m2"
        }
      },
      "request": {
        "method": "PUT",
        "url": "http://localhost:8080/cqf-ruler/baseDstu3/Observation/Observation-602230"
      }
    },
    {
      "fullUrl": "http://localhost:8080/cqf-ruler/baseDstu3/Observation/Observation-602231",
      "resource": {
        "resourceType": "Observation",
        "id": "Observation-602231",
        "status": "final",
        "code": {
          "coding": [
            {
              "system": "http://loinc.org",
              "code": "8310-5",
              "display": "Temperature"
            }
          ]
        },
        "subject": {
          "reference": "Patient/Patient-6520",
          "display": "Terry Harvey Waller"
        },
        "context": {
          "reference": "Encounter/Encounter-2845",
          "display": "Followup_Visit"
        },
        "effectiveDateTime": "2015-03-11T14:00:00-04:00",
        "performer": [
          {
            "reference": "Practitioner/Practitioner-2517",
            "display": "Cathy Shannon Warner MD"
          }
        ],
        "valueQuantity": {
          "value": 37.0,
          "unit": "C"
        }
      },
      "request": {
        "method": "PUT",
        "url": "http://localhost:8080/cqf-ruler/baseDstu3/Observation/Observation-602231"
      }
    },
    {
      "fullUrl": "http://localhost:8080/cqf-ruler/baseDstu3/Observation/Observation-602232",
      "resource": {
        "resourceType": "Observation",
        "id": "Observation-602232",
        "status": "final",
        "code": {
          "coding": [
            {
              "system": "http://loinc.org",
              "code": "8459-0",
              "display": "Systolic Blood Pressure"
            }
          ]
        },
        "subject": {
          "reference": "Patient/Patient-6520",
          "display": "Terry Harvey Waller"
        },
        "context": {
          "reference": "Encounter/Encounter-2845",
          "display": "Followup_Visit"
        },
        "effectiveDateTime": "2015-03-11T14:00:00-04:00",
        "performer": [
          {
            "reference": "Practitioner/Practitioner-2517",
            "display": "Cathy Shannon Warner MD"
          }
        ],
        "valueQuantity": {
          "value": 102.20900667233732,
          "unit": "mmHg"
        }
      },
      "request": {
        "method": "PUT",
        "url": "http://localhost:8080/cqf-ruler/baseDstu3/Observation/Observation-602232"
      }
    },
    {
      "fullUrl": "http://localhost:8080/cqf-ruler/baseDstu3/Observation/Observation-602233",
      "resource": {
        "resourceType": "Observation",
        "id": "Observation-602233",
        "status": "final",
        "code": {
          "coding": [
            {
              "system": "http://loinc.org",
              "code": "8453-3",
              "display": "Diastolic Blood Pressure"
            }
          ]
        },
        "subject": {
          "reference": "Patient/Patient-6520",
          "display": "Terry Harvey Waller"
        },
        "context": {
          "reference": "Encounter/Encounter-2845",
          "display": "Followup_Visit"
        },
        "effectiveDateTime": "2015-03-11T14:00:00-04:00",
        "performer": [
          {
            "reference": "Practitioner/Practitioner-2517",
            "display": "Cathy Shannon Warner MD"
          }
        ],
        "valueQuantity": {
          "value": 97.9820375163764,
          "unit": "mmHg"
        }
      },
      "request": {
        "method": "PUT",
        "url": "http://localhost:8080/cqf-ruler/baseDstu3/Observation/Observation-602233"
      }
    },
    {
      "fullUrl": "http://localhost:8080/cqf-ruler/baseDstu3/DiagnosticReport/DiagnosticReport-602227",
      "resource": {
        "resourceType": "DiagnosticReport",
        "id": "DiagnosticReport-602227",
        "status": "final",
        "code": {
          "coding": [
            {
              "system": "http://loinc.org",
              "code": "8716-3",
              "display": "Vital Signs Panel"
            }
          ]
        },
        "subject": {
          "reference": "Patient/Patient-6520",
          "display": "Terry Harvey Waller"
        },
        "context": {
          "reference": "Encounter/Encounter-2845",
          "display": "Followup_Visit"
        },
        "effectivePeriod": {
          "start": "2015-03-11T14:00:00-04:00",
          "end": "2015-03-11T14:00:00-04:00"
        },
        "issued": "2015-03-11T14:00:00.000-04:00",
        "result": [
          {
            "reference": "Observation/Observation-602228",
            "display": "Height"
          },
          {
            "reference": "Observation/Observation-602229",
            "display": "Weight"
          },
          {
            "reference": "Observation/Observation-602230",
            "display": "BMI"
          },
          {
            "reference": "Observation/Observation-602231",
            "display": "Temperature"
          },
          {
            "reference": "Observation/Observation-602232",
            "display": "Systolic Blood Pressure"
          },
          {
            "reference": "Observation/Observation-602233",
            "display": "Diastolic Blood Pressure"
          }
        ]
      },
      "request": {
        "method": "PUT",
        "url": "http://localhost:8080/cqf-ruler/baseDstu3/DiagnosticReport/DiagnosticReport-602227"
      }
    }
  ]
}