{
  "resourceType": "Bundle",
  "id": "Marie-Kerr-Koch-6498-Encounter-2028",
  "type": "transaction",
  "entry": [
    {
      "fullUrl": "http://localhost:8080/cqf-ruler/baseDstu3/Encounter/Encounter-2028",
      "resource": {
        "resourceType": "Encounter",
        "id": "Encounter-2028",
        "status": "finished",
        "class": {
          "system": "http://hl7.org/fhir/encounter-class",
          "code": "outpatient",
          "display": "Inpatient"
        },
        "subject": {
          "reference": "Patient/Patient-6498",
          "display": "Marie Kerr Koch"
        },
        "participant": [
          {
            "period": {
              "start": "2010-01-22T00:00:00-05:00",
              "end": "2010-01-22T00:00:00-05:00"
            },
            "individual": {
              "reference": "Practitioner/Practitioner-2535",
              "display": "Clifton Terrence Carey MD"
            }
          }
        ],
        "period": {
          "start": "2010-01-22T00:00:00-05:00",
          "end": "2010-01-22T00:00:00-05:00"
        },
        "location": [
          {
            "location": {
              "reference": "Location/Location-1102",
              "display": "Pediatric and Adult Medicine"
            }
          }
        ],
        "serviceProvider": {
          "reference": "Organization/Organization-1102",
          "display": "Pediatric and Adult Medicine"
        }
      },
      "request": {
        "method": "PUT",
        "url": "http://localhost:8080/cqf-ruler/baseDstu3/Encounter/Encounter-2028"
      }
    },
    {
      "fullUrl": "http://localhost:8080/cqf-ruler/baseDstu3/Immunization/Immunization-443767",
      "resource": {
        "resourceType": "Immunization",
        "id": "Immunization-443767",
        "status": "completed",
        "notGiven": false,
        "vaccineCode": {
          "coding": [
            {
              "system": "http://hl7.org/fhir/sid/cvx",
              "code": "140",
              "display": "Influenza, seasonal, injectable, preservative free"
            }
          ]
        },
        "patient": {
          "reference": "Patient/Patient-6498",
          "display": "Marie Kerr Koch"
        },
        "date": "2010-01-22T00:00:00-05:00",
        "primarySource": true,
        "location": {
          "reference": "Location/Location-1102",
          "display": "Pediatric and Adult Medicine"
        },
        "practitioner": [
          {
            "actor": {
              "reference": "Practitioner/Practitioner-2535",
              "display": "Clifton Terrence Carey MD"
            }
          }
        ]
      },
      "request": {
        "method": "PUT",
        "url": "http://localhost:8080/cqf-ruler/baseDstu3/Immunization/Immunization-443767"
      }
    },
    {
      "fullUrl": "http://localhost:8080/cqf-ruler/baseDstu3/Observation/Observation-467107",
      "resource": {
        "resourceType": "Observation",
        "id": "Observation-467107",
        "status": "final",
        "code": {
          "coding": [
            {
              "system": "http://loinc.org",
              "code": "8480-6",
              "display": "Systolic blood pressure"
            }
          ]
        },
        "subject": {
          "reference": "Patient/Patient-6498",
          "display": "Marie Kerr Koch"
        },
        "context": {
          "reference": "Encounter/Encounter-2028",
          "display": "Wellness Visit"
        },
        "effectivePeriod": {
          "start": "2010-01-22T00:00:00-05:00",
          "end": "2010-01-22T00:00:00-05:00"
        },
        "performer": [
          {
            "reference": "Practitioner/Practitioner-2535",
            "display": "Clifton Terrence Carey MD"
          }
        ],
        "valueQuantity": {
          "value": 118.92172331792477,
          "unit": "mmHg"
        }
      },
      "request": {
        "method": "PUT",
        "url": "http://localhost:8080/cqf-ruler/baseDstu3/Observation/Observation-467107"
      }
    },
    {
      "fullUrl": "http://localhost:8080/cqf-ruler/baseDstu3/Observation/Observation-467108",
      "resource": {
        "resourceType": "Observation",
        "id": "Observation-467108",
        "status": "final",
        "code": {
          "coding": [
            {
              "system": "http://loinc.org",
              "code": "8462-4",
              "display": "Diastolic blood pressure"
            }
          ]
        },
        "subject": {
          "reference": "Patient/Patient-6498",
          "display": "Marie Kerr Koch"
        },
        "context": {
          "reference": "Encounter/Encounter-2028",
          "display": "Wellness Visit"
        },
        "effectivePeriod": {
          "start": "2010-01-22T00:00:00-05:00",
          "end": "2010-01-22T00:00:00-05:00"
        },
        "performer": [
          {
            "reference": "Practitioner/Practitioner-2535",
            "display": "Clifton Terrence Carey MD"
          }
        ],
        "valueQuantity": {
          "value": 60.60391884776276,
          "unit": "mmHg"
        }
      },
      "request": {
        "method": "PUT",
        "url": "http://localhost:8080/cqf-ruler/baseDstu3/Observation/Observation-467108"
      }
    },
    {
      "fullUrl": "http://localhost:8080/cqf-ruler/baseDstu3/Observation/Observation-467109",
      "resource": {
        "resourceType": "Observation",
        "id": "Observation-467109",
        "status": "final",
        "code": {
          "coding": [
            {
              "system": "http://loinc.org",
              "code": "8302-2",
              "display": "Body Height"
            }
          ]
        },
        "subject": {
          "reference": "Patient/Patient-6498",
          "display": "Marie Kerr Koch"
        },
        "context": {
          "reference": "Encounter/Encounter-2028",
          "display": "Wellness Visit"
        },
        "effectivePeriod": {
          "start": "2010-01-22T00:00:00-05:00",
          "end": "2010-01-22T00:00:00-05:00"
        },
        "performer": [
          {
            "reference": "Practitioner/Practitioner-2535",
            "display": "Clifton Terrence Carey MD"
          }
        ],
        "valueQuantity": {
          "value": 167.5,
          "unit": "cm"
        }
      },
      "request": {
        "method": "PUT",
        "url": "http://localhost:8080/cqf-ruler/baseDstu3/Observation/Observation-467109"
      }
    },
    {
      "fullUrl": "http://localhost:8080/cqf-ruler/baseDstu3/Observation/Observation-467110",
      "resource": {
        "resourceType": "Observation",
        "id": "Observation-467110",
        "status": "final",
        "code": {
          "coding": [
            {
              "system": "http://loinc.org",
              "code": "29463-7",
              "display": "Body Weight"
            }
          ]
        },
        "subject": {
          "reference": "Patient/Patient-6498",
          "display": "Marie Kerr Koch"
        },
        "context": {
          "reference": "Encounter/Encounter-2028",
          "display": "Wellness Visit"
        },
        "effectivePeriod": {
          "start": "2010-01-22T00:00:00-05:00",
          "end": "2010-01-22T00:00:00-05:00"
        },
        "performer": [
          {
            "reference": "Practitioner/Practitioner-2535",
            "display": "Clifton Terrence Carey MD"
          }
        ],
        "valueQuantity": {
          "value": 56.63041508502307,
          "unit": "kg"
        }
      },
      "request": {
        "method": "PUT",
        "url": "http://localhost:8080/cqf-ruler/baseDstu3/Observation/Observation-467110"
      }
    },
    {
      "fullUrl": "http://localhost:8080/cqf-ruler/baseDstu3/Observation/Observation-467111",
      "resource": {
        "resourceType": "Observation",
        "id": "Observation-467111",
        "status": "final",
        "code": {
          "coding": [
            {
              "system": "http://loinc.org",
              "code": "39156-5",
              "display": "Body Mass Index"
            }
          ]
        },
        "subject": {
          "reference": "Patient/Patient-6498",
          "display": "Marie Kerr Koch"
        },
        "context": {
          "reference": "Encounter/Encounter-2028",
          "display": "Wellness Visit"
        },
        "effectivePeriod": {
          "start": "2010-01-22T00:00:00-05:00",
          "end": "2010-01-22T00:00:00-05:00"
        },
        "performer": [
          {
            "reference": "Practitioner/Practitioner-2535",
            "display": "Clifton Terrence Carey MD"
          }
        ],
        "valueQuantity": {
          "value": 20.18459882736398,
          "unit": "kg/m2"
        }
      },
      "request": {
        "method": "PUT",
        "url": "http://localhost:8080/cqf-ruler/baseDstu3/Observation/Observation-467111"
      }
    },
    {
      "fullUrl": "http://localhost:8080/cqf-ruler/baseDstu3/Observation/Observation-467114",
      "resource": {
        "resourceType": "Observation",
        "id": "Observation-467114",
        "status": "final",
        "category": [
          {
            "coding": [
              {
                "system": "http://hl7.org/fhir/observation-category",
                "code": "vital-signs",
                "display": "vital-signs"
              }
            ]
          }
        ],
        "code": {
          "coding": [
            {
              "system": "http://loinc.org",
              "code": "55284-4",
              "display": "Blood Pressure"
            }
          ]
        },
        "subject": {
          "reference": "Patient/Patient-6498",
          "display": "Marie Kerr Koch"
        },
        "context": {
          "reference": "Encounter/Encounter-2028",
          "display": "Wellness Visit"
        },
        "effectivePeriod": {
          "start": "2010-01-22T00:00:00-05:00",
          "end": "2010-01-22T00:00:00-05:00"
        },
        "valueQuantity": {
          "value": 60.60391884776276,
          "unit": "mmHg"
        },
        "component": [
          {
            "code": {
              "coding": [
                {
                  "system": "http://loinc.org",
                  "code": "8480-6",
                  "display": "Systolic Blood Pressure"
                }
              ]
            }
          },
          {
            "code": {
              "coding": [
                {
                  "system": "http://loinc.org",
                  "code": "8462-4",
                  "display": "Diastolic Blood Pressure"
                }
              ]
            }
          }
        ]
      },
      "request": {
        "method": "PUT",
        "url": "http://localhost:8080/cqf-ruler/baseDstu3/Observation/Observation-467114"
      }
    },
    {
      "fullUrl": "http://localhost:8080/cqf-ruler/baseDstu3/Observation/Observation-467116",
      "resource": {
        "resourceType": "Observation",
        "id": "Observation-467116",
        "status": "final",
        "code": {
          "coding": [
            {
              "system": "http://loinc.org",
              "code": "8302-2",
              "display": "Height"
            }
          ]
        },
        "subject": {
          "reference": "Patient/Patient-6498",
          "display": "Marie Kerr Koch"
        },
        "context": {
          "reference": "Encounter/Encounter-2028",
          "display": "Wellness Visit"
        },
        "effectiveDateTime": "2010-01-22T00:00:00-05:00",
        "performer": [
          {
            "reference": "Practitioner/Practitioner-2535",
            "display": "Clifton Terrence Carey MD"
          }
        ],
        "valueQuantity": {
          "value": 167.5,
          "unit": "cm"
        }
      },
      "request": {
        "method": "PUT",
        "url": "http://localhost:8080/cqf-ruler/baseDstu3/Observation/Observation-467116"
      }
    },
    {
      "fullUrl": "http://localhost:8080/cqf-ruler/baseDstu3/Observation/Observation-467117",
      "resource": {
        "resourceType": "Observation",
        "id": "Observation-467117",
        "status": "final",
        "code": {
          "coding": [
            {
              "system": "http://loinc.org",
              "code": "29463-7",
              "display": "Weight"
            }
          ]
        },
        "subject": {
          "reference": "Patient/Patient-6498",
          "display": "Marie Kerr Koch"
        },
        "context": {
          "reference": "Encounter/Encounter-2028",
          "display": "Wellness Visit"
        },
        "effectiveDateTime": "2010-01-22T00:00:00-05:00",
        "performer": [
          {
            "reference": "Practitioner/Practitioner-2535",
            "display": "Clifton Terrence Carey MD"
          }
        ],
        "valueQuantity": {
          "value": 56.63041508502307,
          "unit": "kg"
        }
      },
      "request": {
        "method": "PUT",
        "url": "http://localhost:8080/cqf-ruler/baseDstu3/Observation/Observation-467117"
      }
    },
    {
      "fullUrl": "http://localhost:8080/cqf-ruler/baseDstu3/Observation/Observation-467118",
      "resource": {
        "resourceType": "Observation",
        "id": "Observation-467118",
        "status": "final",
        "code": {
          "coding": [
            {
              "system": "http://loinc.org",
              "code": "39156-5",
              "display": "BMI"
            }
          ]
        },
        "subject": {
          "reference": "Patient/Patient-6498",
          "display": "Marie Kerr Koch"
        },
        "context": {
          "reference": "Encounter/Encounter-2028",
          "display": "Wellness Visit"
        },
        "effectiveDateTime": "2010-01-22T00:00:00-05:00",
        "performer": [
          {
            "reference": "Practitioner/Practitioner-2535",
            "display": "Clifton Terrence Carey MD"
          }
        ],
        "valueQuantity": {
          "value": 20.18459882736398,
          "unit": "kg/m2"
        }
      },
      "request": {
        "method": "PUT",
        "url": "http://localhost:8080/cqf-ruler/baseDstu3/Observation/Observation-467118"
      }
    },
    {
      "fullUrl": "http://localhost:8080/cqf-ruler/baseDstu3/Observation/Observation-467119",
      "resource": {
        "resourceType": "Observation",
        "id": "Observation-467119",
        "status": "final",
        "code": {
          "coding": [
            {
              "system": "http://loinc.org",
              "code": "8310-5",
              "display": "Temperature"
            }
          ]
        },
        "subject": {
          "reference": "Patient/Patient-6498",
          "display": "Marie Kerr Koch"
        },
        "context": {
          "reference": "Encounter/Encounter-2028",
          "display": "Wellness Visit"
        },
        "effectiveDateTime": "2010-01-22T00:00:00-05:00",
        "performer": [
          {
            "reference": "Practitioner/Practitioner-2535",
            "display": "Clifton Terrence Carey MD"
          }
        ],
        "valueQuantity": {
          "value": 37.0,
          "unit": "C"
        }
      },
      "request": {
        "method": "PUT",
        "url": "http://localhost:8080/cqf-ruler/baseDstu3/Observation/Observation-467119"
      }
    },
    {
      "fullUrl": "http://localhost:8080/cqf-ruler/baseDstu3/Observation/Observation-467120",
      "resource": {
        "resourceType": "Observation",
        "id": "Observation-467120",
        "status": "final",
        "code": {
          "coding": [
            {
              "system": "http://loinc.org",
              "code": "8459-0",
              "display": "Systolic Blood Pressure"
            }
          ]
        },
        "subject": {
          "reference": "Patient/Patient-6498",
          "display": "Marie Kerr Koch"
        },
        "context": {
          "reference": "Encounter/Encounter-2028",
          "display": "Wellness Visit"
        },
        "effectiveDateTime": "2010-01-22T00:00:00-05:00",
        "performer": [
          {
            "reference": "Practitioner/Practitioner-2535",
            "display": "Clifton Terrence Carey MD"
          }
        ],
        "valueQuantity": {
          "value": 118.92172331792477,
          "unit": "mmHg"
        }
      },
      "request": {
        "method": "PUT",
        "url": "http://localhost:8080/cqf-ruler/baseDstu3/Observation/Observation-467120"
      }
    },
    {
      "fullUrl": "http://localhost:8080/cqf-ruler/baseDstu3/Observation/Observation-467121",
      "resource": {
        "resourceType": "Observation",
        "id": "Observation-467121",
        "status": "final",
        "code": {
          "coding": [
            {
              "system": "http://loinc.org",
              "code": "8453-3",
              "display": "Diastolic Blood Pressure"
            }
          ]
        },
        "subject": {
          "reference": "Patient/Patient-6498",
          "display": "Marie Kerr Koch"
        },
        "context": {
          "reference": "Encounter/Encounter-2028",
          "display": "Wellness Visit"
        },
        "effectiveDateTime": "2010-01-22T00:00:00-05:00",
        "performer": [
          {
            "reference": "Practitioner/Practitioner-2535",
            "display": "Clifton Terrence Carey MD"
          }
        ],
        "valueQuantity": {
          "value": 60.60391884776276,
          "unit": "mmHg"
        }
      },
      "request": {
        "method": "PUT",
        "url": "http://localhost:8080/cqf-ruler/baseDstu3/Observation/Observation-467121"
      }
    },
    {
      "fullUrl": "http://localhost:8080/cqf-ruler/baseDstu3/DiagnosticReport/DiagnosticReport-467115",
      "resource": {
        "resourceType": "DiagnosticReport",
        "id": "DiagnosticReport-467115",
        "status": "final",
        "code": {
          "coding": [
            {
              "system": "http://loinc.org",
              "code": "8716-3",
              "display": "Vital Signs Panel"
            }
          ]
        },
        "subject": {
          "reference": "Patient/Patient-6498",
          "display": "Marie Kerr Koch"
        },
        "context": {
          "reference": "Encounter/Encounter-2028",
          "display": "Wellness Visit"
        },
        "effectivePeriod": {
          "start": "2010-01-22T00:00:00-05:00",
          "end": "2010-01-22T00:00:00-05:00"
        },
        "issued": "2010-01-22T00:00:00.000-05:00",
        "result": [
          {
            "reference": "Observation/Observation-467116",
            "display": "Height"
          },
          {
            "reference": "Observation/Observation-467117",
            "display": "Weight"
          },
          {
            "reference": "Observation/Observation-467118",
            "display": "BMI"
          },
          {
            "reference": "Observation/Observation-467119",
            "display": "Temperature"
          },
          {
            "reference": "Observation/Observation-467120",
            "display": "Systolic Blood Pressure"
          },
          {
            "reference": "Observation/Observation-467121",
            "display": "Diastolic Blood Pressure"
          }
        ]
      },
      "request": {
        "method": "PUT",
        "url": "http://localhost:8080/cqf-ruler/baseDstu3/DiagnosticReport/DiagnosticReport-467115"
      }
    }
  ]
}