{
  "resourceType": "Bundle",
  "id": "Marie Kerr Koch-6498-Encounter-1457",
  "type": "transaction",
  "entry": [
    {
      "fullUrl": "http://localhost:8080/cqf-ruler/baseDstu3/Encounter/Encounter-1457",
      "resource": {
        "resourceType": "Encounter",
        "id": "Encounter-1457",
        "status": "finished",
        "class": {
          "system": "http://hl7.org/fhir/encounter-class",
          "code": "outpatient",
          "display": "Inpatient"
        },
        "subject": {
          "reference": "Patient/Patient-6498",
          "display": "Marie Kerr Koch"
        },
        "participant": [
          {
            "period": {
              "start": "2003-08-05T02:00:00-04:00",
              "end": "2003-08-05T02:00:00-04:00"
            },
            "individual": {
              "reference": "Practitioner/Practitioner-2535",
              "display": "Clifton Terrence Carey MD"
            }
          }
        ],
        "period": {
          "start": "2003-08-05T02:00:00-04:00",
          "end": "2003-08-05T02:00:00-04:00"
        },
        "location": [
          {
            "location": {
              "reference": "Location/Location-1102",
              "display": "Pediatric and Adult Medicine"
            }
          }
        ],
        "serviceProvider": {
          "reference": "Organization/Organization-1102",
          "display": "Pediatric and Adult Medicine"
        }
      },
      "request": {
        "method": "PUT",
        "url": "http://localhost:8080/cqf-ruler/baseDstu3/Encounter/Encounter-1457"
      }
    },
    {
      "fullUrl": "http://localhost:8080/cqf-ruler/baseDstu3/Immunization/Immunization-287550",
      "resource": {
        "resourceType": "Immunization",
        "id": "Immunization-287550",
        "status": "completed",
        "notGiven": false,
        "vaccineCode": {
          "coding": [
            {
              "system": "http://hl7.org/fhir/sid/cvx",
              "code": "140",
              "display": "Influenza, seasonal, injectable, preservative free"
            }
          ]
        },
        "patient": {
          "reference": "Patient/Patient-6498",
          "display": "Marie Kerr Koch"
        },
        "date": "2003-08-05T02:00:00-04:00",
        "primarySource": true,
        "location": {
          "reference": "Location/Location-1102",
          "display": "Pediatric and Adult Medicine"
        },
        "practitioner": [
          {
            "actor": {
              "reference": "Practitioner/Practitioner-2535",
              "display": "Clifton Terrence Carey MD"
            }
          }
        ]
      },
      "request": {
        "method": "PUT",
        "url": "http://localhost:8080/cqf-ruler/baseDstu3/Immunization/Immunization-287550"
      }
    },
    {
      "fullUrl": "http://localhost:8080/cqf-ruler/baseDstu3/Immunization/Immunization-287551",
      "resource": {
        "resourceType": "Immunization",
        "id": "Immunization-287551",
        "status": "completed",
        "notGiven": false,
        "vaccineCode": {
          "coding": [
            {
              "system": "http://hl7.org/fhir/sid/cvx",
              "code": "62",
              "display": "HPV, quadrivalent"
            }
          ]
        },
        "patient": {
          "reference": "Patient/Patient-6498",
          "display": "Marie Kerr Koch"
        },
        "date": "2003-08-05T02:00:00-04:00",
        "primarySource": true,
        "location": {
          "reference": "Location/Location-1102",
          "display": "Pediatric and Adult Medicine"
        },
        "practitioner": [
          {
            "actor": {
              "reference": "Practitioner/Practitioner-2535",
              "display": "Clifton Terrence Carey MD"
            }
          }
        ]
      },
      "request": {
        "method": "PUT",
        "url": "http://localhost:8080/cqf-ruler/baseDstu3/Immunization/Immunization-287551"
      }
    },
    {
      "fullUrl": "http://localhost:8080/cqf-ruler/baseDstu3/Immunization/Immunization-287552",
      "resource": {
        "resourceType": "Immunization",
        "id": "Immunization-287552",
        "status": "completed",
        "notGiven": false,
        "vaccineCode": {
          "coding": [
            {
              "system": "http://hl7.org/fhir/sid/cvx",
              "code": "114",
              "display": "meningococcal MCV4P"
            }
          ]
        },
        "patient": {
          "reference": "Patient/Patient-6498",
          "display": "Marie Kerr Koch"
        },
        "date": "2003-08-05T02:00:00-04:00",
        "primarySource": true,
        "location": {
          "reference": "Location/Location-1102",
          "display": "Pediatric and Adult Medicine"
        },
        "practitioner": [
          {
            "actor": {
              "reference": "Practitioner/Practitioner-2535",
              "display": "Clifton Terrence Carey MD"
            }
          }
        ]
      },
      "request": {
        "method": "PUT",
        "url": "http://localhost:8080/cqf-ruler/baseDstu3/Immunization/Immunization-287552"
      }
    },
    {
      "fullUrl": "http://localhost:8080/cqf-ruler/baseDstu3/Immunization/Immunization-287553",
      "resource": {
        "resourceType": "Immunization",
        "id": "Immunization-287553",
        "status": "completed",
        "notGiven": false,
        "vaccineCode": {
          "coding": [
            {
              "system": "http://hl7.org/fhir/sid/cvx",
              "code": "115",
              "display": "Tdap"
            }
          ]
        },
        "patient": {
          "reference": "Patient/Patient-6498",
          "display": "Marie Kerr Koch"
        },
        "date": "2003-08-05T02:00:00-04:00",
        "primarySource": true,
        "location": {
          "reference": "Location/Location-1102",
          "display": "Pediatric and Adult Medicine"
        },
        "practitioner": [
          {
            "actor": {
              "reference": "Practitioner/Practitioner-2535",
              "display": "Clifton Terrence Carey MD"
            }
          }
        ]
      },
      "request": {
        "method": "PUT",
        "url": "http://localhost:8080/cqf-ruler/baseDstu3/Immunization/Immunization-287553"
      }
    },
    {
      "fullUrl": "http://localhost:8080/cqf-ruler/baseDstu3/Observation/Observation-308745",
      "resource": {
        "resourceType": "Observation",
        "id": "Observation-308745",
        "status": "final",
        "code": {
          "coding": [
            {
              "system": "http://loinc.org",
              "code": "8302-2",
              "display": "Height"
            }
          ]
        },
        "subject": {
          "reference": "Patient/Patient-6498",
          "display": "Marie Kerr Koch"
        },
        "context": {
          "reference": "Encounter/Encounter-1457",
          "display": "Pediatric and Adult Medicine"
        },
        "effectiveDateTime": "2003-08-05T02:00:00-04:00",
        "performer": [
          {
            "reference": "Practitioner/Practitioner-2535",
            "display": "Clifton Terrence Carey MD"
          }
        ],
        "valueQuantity": {
          "value": 141.3,
          "unit": "cm"
        }
      },
      "request": {
        "method": "PUT",
        "url": "http://localhost:8080/cqf-ruler/baseDstu3/Observation/Observation-308745"
      }
    },
    {
      "fullUrl": "http://localhost:8080/cqf-ruler/baseDstu3/Observation/Observation-308746",
      "resource": {
        "resourceType": "Observation",
        "id": "Observation-308746",
        "status": "final",
        "code": {
          "coding": [
            {
              "system": "http://loinc.org",
              "code": "29463-7",
              "display": "Weight"
            }
          ]
        },
        "subject": {
          "reference": "Patient/Patient-6498",
          "display": "Marie Kerr Koch"
        },
        "context": {
          "reference": "Encounter/Encounter-1457",
          "display": "Pediatric and Adult Medicine"
        },
        "effectiveDateTime": "2003-08-05T02:00:00-04:00",
        "performer": [
          {
            "reference": "Practitioner/Practitioner-2535",
            "display": "Clifton Terrence Carey MD"
          }
        ],
        "valueQuantity": {
          "value": 0.0,
          "unit": "kg"
        }
      },
      "request": {
        "method": "PUT",
        "url": "http://localhost:8080/cqf-ruler/baseDstu3/Observation/Observation-308746"
      }
    },
    {
      "fullUrl": "http://localhost:8080/cqf-ruler/baseDstu3/Observation/Observation-308747",
      "resource": {
        "resourceType": "Observation",
        "id": "Observation-308747",
        "status": "final",
        "code": {
          "coding": [
            {
              "system": "http://loinc.org",
              "code": "39156-5",
              "display": "BMI"
            }
          ]
        },
        "subject": {
          "reference": "Patient/Patient-6498",
          "display": "Marie Kerr Koch"
        },
        "context": {
          "reference": "Encounter/Encounter-1457",
          "display": "Pediatric and Adult Medicine"
        },
        "effectiveDateTime": "2003-08-05T02:00:00-04:00",
        "performer": [
          {
            "reference": "Practitioner/Practitioner-2535",
            "display": "Clifton Terrence Carey MD"
          }
        ],
        "valueQuantity": {
          "value": 0.0,
          "unit": "kg/m2"
        }
      },
      "request": {
        "method": "PUT",
        "url": "http://localhost:8080/cqf-ruler/baseDstu3/Observation/Observation-308747"
      }
    },
    {
      "fullUrl": "http://localhost:8080/cqf-ruler/baseDstu3/Observation/Observation-308748",
      "resource": {
        "resourceType": "Observation",
        "id": "Observation-308748",
        "status": "final",
        "code": {
          "coding": [
            {
              "system": "http://loinc.org",
              "code": "8310-5",
              "display": "Temperature"
            }
          ]
        },
        "subject": {
          "reference": "Patient/Patient-6498",
          "display": "Marie Kerr Koch"
        },
        "context": {
          "reference": "Encounter/Encounter-1457",
          "display": "Pediatric and Adult Medicine"
        },
        "effectiveDateTime": "2003-08-05T02:00:00-04:00",
        "performer": [
          {
            "reference": "Practitioner/Practitioner-2535",
            "display": "Clifton Terrence Carey MD"
          }
        ],
        "valueQuantity": {
          "value": 37.0,
          "unit": "C"
        }
      },
      "request": {
        "method": "PUT",
        "url": "http://localhost:8080/cqf-ruler/baseDstu3/Observation/Observation-308748"
      }
    },
    {
      "fullUrl": "http://localhost:8080/cqf-ruler/baseDstu3/Observation/Observation-308749",
      "resource": {
        "resourceType": "Observation",
        "id": "Observation-308749",
        "status": "final",
        "code": {
          "coding": [
            {
              "system": "http://loinc.org",
              "code": "8459-0",
              "display": "Systolic Blood Pressure"
            }
          ]
        },
        "subject": {
          "reference": "Patient/Patient-6498",
          "display": "Marie Kerr Koch"
        },
        "context": {
          "reference": "Encounter/Encounter-1457",
          "display": "Pediatric and Adult Medicine"
        },
        "effectiveDateTime": "2003-08-05T02:00:00-04:00",
        "performer": [
          {
            "reference": "Practitioner/Practitioner-2535",
            "display": "Clifton Terrence Carey MD"
          }
        ],
        "valueQuantity": {
          "value": 118.66729798241202,
          "unit": "mmHg"
        }
      },
      "request": {
        "method": "PUT",
        "url": "http://localhost:8080/cqf-ruler/baseDstu3/Observation/Observation-308749"
      }
    },
    {
      "fullUrl": "http://localhost:8080/cqf-ruler/baseDstu3/Observation/Observation-308750",
      "resource": {
        "resourceType": "Observation",
        "id": "Observation-308750",
        "status": "final",
        "code": {
          "coding": [
            {
              "system": "http://loinc.org",
              "code": "8453-3",
              "display": "Diastolic Blood Pressure"
            }
          ]
        },
        "subject": {
          "reference": "Patient/Patient-6498",
          "display": "Marie Kerr Koch"
        },
        "context": {
          "reference": "Encounter/Encounter-1457",
          "display": "Pediatric and Adult Medicine"
        },
        "effectiveDateTime": "2003-08-05T02:00:00-04:00",
        "performer": [
          {
            "reference": "Practitioner/Practitioner-2535",
            "display": "Clifton Terrence Carey MD"
          }
        ],
        "valueQuantity": {
          "value": 83.297436121949,
          "unit": "mmHg"
        }
      },
      "request": {
        "method": "PUT",
        "url": "http://localhost:8080/cqf-ruler/baseDstu3/Observation/Observation-308750"
      }
    },
    {
      "fullUrl": "http://localhost:8080/cqf-ruler/baseDstu3/DiagnosticReport/DiagnosticReport-308744",
      "resource": {
        "resourceType": "DiagnosticReport",
        "id": "DiagnosticReport-308744",
        "status": "final",
        "code": {
          "coding": [
            {
              "system": "http://loinc.org",
              "code": "8716-3",
              "display": "Vital Signs Panel"
            }
          ]
        },
        "subject": {
          "reference": "Patient/Patient-6498",
          "display": "Marie Kerr Koch"
        },
        "context": {
          "reference": "Encounter/Encounter-1457",
          "display": "Pediatric and Adult Medicine"
        },
        "effectivePeriod": {
          "start": "2003-08-05T02:00:00-04:00",
          "end": "2003-08-05T02:00:00-04:00"
        },
        "issued": "2003-08-05T02:00:00.000-04:00",
        "result": [
          {
            "reference": "Observation/Observation-308745",
            "display": "Height"
          },
          {
            "reference": "Observation/Observation-308746",
            "display": "Weight"
          },
          {
            "reference": "Observation/Observation-308747",
            "display": "BMI"
          },
          {
            "reference": "Observation/Observation-308748",
            "display": "Temperature"
          },
          {
            "reference": "Observation/Observation-308749",
            "display": "Systolic Blood Pressure"
          },
          {
            "reference": "Observation/Observation-308750",
            "display": "Diastolic Blood Pressure"
          }
        ]
      },
      "request": {
        "method": "PUT",
        "url": "http://localhost:8080/cqf-ruler/baseDstu3/DiagnosticReport/DiagnosticReport-308744"
      }
    }
  ]
}