{
  "resourceType": "Bundle",
  "id": "Marie Kerr Koch-6498-Encounter-1179",
  "type": "transaction",
  "entry": [
    {
      "fullUrl": "http://localhost:8080/cqf-ruler/baseDstu3/Encounter/Encounter-1179",
      "resource": {
        "resourceType": "Encounter",
        "id": "Encounter-1179",
        "status": "finished",
        "class": {
          "system": "http://hl7.org/fhir/encounter-class",
          "code": "outpatient",
          "display": "Inpatient"
        },
        "subject": {
          "reference": "Patient/Patient-6498",
          "display": "Marie Kerr Koch"
        },
        "participant": [
          {
            "period": {
              "start": "2000-08-05T02:00:00-04:00",
              "end": "2000-08-05T02:00:00-04:00"
            },
            "individual": {
              "reference": "Practitioner/Practitioner-2535",
              "display": "Clifton Terrence Carey MD"
            }
          }
        ],
        "period": {
          "start": "2000-08-05T02:00:00-04:00",
          "end": "2000-08-05T02:00:00-04:00"
        },
        "location": [
          {
            "location": {
              "reference": "Location/Location-1102",
              "display": "Pediatric and Adult Medicine"
            }
          }
        ],
        "serviceProvider": {
          "reference": "Organization/Organization-1102",
          "display": "Pediatric and Adult Medicine"
        }
      },
      "request": {
        "method": "PUT",
        "url": "http://localhost:8080/cqf-ruler/baseDstu3/Encounter/Encounter-1179"
      }
    },
    {
      "fullUrl": "http://localhost:8080/cqf-ruler/baseDstu3/Immunization/Immunization-225149",
      "resource": {
        "resourceType": "Immunization",
        "id": "Immunization-225149",
        "status": "completed",
        "notGiven": false,
        "vaccineCode": {
          "coding": [
            {
              "system": "http://hl7.org/fhir/sid/cvx",
              "code": "140",
              "display": "Influenza, seasonal, injectable, preservative free"
            }
          ]
        },
        "patient": {
          "reference": "Patient/Patient-6498",
          "display": "Marie Kerr Koch"
        },
        "date": "2000-08-05T02:00:00-04:00",
        "primarySource": true,
        "location": {
          "reference": "Location/Location-1102",
          "display": "Pediatric and Adult Medicine"
        },
        "practitioner": [
          {
            "actor": {
              "reference": "Practitioner/Practitioner-2535",
              "display": "Clifton Terrence Carey MD"
            }
          }
        ]
      },
      "request": {
        "method": "PUT",
        "url": "http://localhost:8080/cqf-ruler/baseDstu3/Immunization/Immunization-225149"
      }
    },
    {
      "fullUrl": "http://localhost:8080/cqf-ruler/baseDstu3/Observation/Observation-245089",
      "resource": {
        "resourceType": "Observation",
        "id": "Observation-245089",
        "status": "final",
        "code": {
          "coding": [
            {
              "system": "http://loinc.org",
              "code": "8302-2",
              "display": "Height"
            }
          ]
        },
        "subject": {
          "reference": "Patient/Patient-6498",
          "display": "Marie Kerr Koch"
        },
        "context": {
          "reference": "Encounter/Encounter-1179",
          "display": "Pediatric and Adult Medicine"
        },
        "effectiveDateTime": "2000-08-05T02:00:00-04:00",
        "performer": [
          {
            "reference": "Practitioner/Practitioner-2535",
            "display": "Clifton Terrence Carey MD"
          }
        ],
        "valueQuantity": {
          "value": 125.0,
          "unit": "cm"
        }
      },
      "request": {
        "method": "PUT",
        "url": "http://localhost:8080/cqf-ruler/baseDstu3/Observation/Observation-245089"
      }
    },
    {
      "fullUrl": "http://localhost:8080/cqf-ruler/baseDstu3/Observation/Observation-245090",
      "resource": {
        "resourceType": "Observation",
        "id": "Observation-245090",
        "status": "final",
        "code": {
          "coding": [
            {
              "system": "http://loinc.org",
              "code": "29463-7",
              "display": "Weight"
            }
          ]
        },
        "subject": {
          "reference": "Patient/Patient-6498",
          "display": "Marie Kerr Koch"
        },
        "context": {
          "reference": "Encounter/Encounter-1179",
          "display": "Pediatric and Adult Medicine"
        },
        "effectiveDateTime": "2000-08-05T02:00:00-04:00",
        "performer": [
          {
            "reference": "Practitioner/Practitioner-2535",
            "display": "Clifton Terrence Carey MD"
          }
        ],
        "valueQuantity": {
          "value": 0.0,
          "unit": "kg"
        }
      },
      "request": {
        "method": "PUT",
        "url": "http://localhost:8080/cqf-ruler/baseDstu3/Observation/Observation-245090"
      }
    },
    {
      "fullUrl": "http://localhost:8080/cqf-ruler/baseDstu3/Observation/Observation-245091",
      "resource": {
        "resourceType": "Observation",
        "id": "Observation-245091",
        "status": "final",
        "code": {
          "coding": [
            {
              "system": "http://loinc.org",
              "code": "39156-5",
              "display": "BMI"
            }
          ]
        },
        "subject": {
          "reference": "Patient/Patient-6498",
          "display": "Marie Kerr Koch"
        },
        "context": {
          "reference": "Encounter/Encounter-1179",
          "display": "Pediatric and Adult Medicine"
        },
        "effectiveDateTime": "2000-08-05T02:00:00-04:00",
        "performer": [
          {
            "reference": "Practitioner/Practitioner-2535",
            "display": "Clifton Terrence Carey MD"
          }
        ],
        "valueQuantity": {
          "value": 0.0,
          "unit": "kg/m2"
        }
      },
      "request": {
        "method": "PUT",
        "url": "http://localhost:8080/cqf-ruler/baseDstu3/Observation/Observation-245091"
      }
    },
    {
      "fullUrl": "http://localhost:8080/cqf-ruler/baseDstu3/Observation/Observation-245092",
      "resource": {
        "resourceType": "Observation",
        "id": "Observation-245092",
        "status": "final",
        "code": {
          "coding": [
            {
              "system": "http://loinc.org",
              "code": "8310-5",
              "display": "Temperature"
            }
          ]
        },
        "subject": {
          "reference": "Patient/Patient-6498",
          "display": "Marie Kerr Koch"
        },
        "context": {
          "reference": "Encounter/Encounter-1179",
          "display": "Pediatric and Adult Medicine"
        },
        "effectiveDateTime": "2000-08-05T02:00:00-04:00",
        "performer": [
          {
            "reference": "Practitioner/Practitioner-2535",
            "display": "Clifton Terrence Carey MD"
          }
        ],
        "valueQuantity": {
          "value": 37.0,
          "unit": "C"
        }
      },
      "request": {
        "method": "PUT",
        "url": "http://localhost:8080/cqf-ruler/baseDstu3/Observation/Observation-245092"
      }
    },
    {
      "fullUrl": "http://localhost:8080/cqf-ruler/baseDstu3/Observation/Observation-245093",
      "resource": {
        "resourceType": "Observation",
        "id": "Observation-245093",
        "status": "final",
        "code": {
          "coding": [
            {
              "system": "http://loinc.org",
              "code": "8459-0",
              "display": "Systolic Blood Pressure"
            }
          ]
        },
        "subject": {
          "reference": "Patient/Patient-6498",
          "display": "Marie Kerr Koch"
        },
        "context": {
          "reference": "Encounter/Encounter-1179",
          "display": "Pediatric and Adult Medicine"
        },
        "effectiveDateTime": "2000-08-05T02:00:00-04:00",
        "performer": [
          {
            "reference": "Practitioner/Practitioner-2535",
            "display": "Clifton Terrence Carey MD"
          }
        ],
        "valueQuantity": {
          "value": 119.15884805366433,
          "unit": "mmHg"
        }
      },
      "request": {
        "method": "PUT",
        "url": "http://localhost:8080/cqf-ruler/baseDstu3/Observation/Observation-245093"
      }
    },
    {
      "fullUrl": "http://localhost:8080/cqf-ruler/baseDstu3/Observation/Observation-245094",
      "resource": {
        "resourceType": "Observation",
        "id": "Observation-245094",
        "status": "final",
        "code": {
          "coding": [
            {
              "system": "http://loinc.org",
              "code": "8453-3",
              "display": "Diastolic Blood Pressure"
            }
          ]
        },
        "subject": {
          "reference": "Patient/Patient-6498",
          "display": "Marie Kerr Koch"
        },
        "context": {
          "reference": "Encounter/Encounter-1179",
          "display": "Pediatric and Adult Medicine"
        },
        "effectiveDateTime": "2000-08-05T02:00:00-04:00",
        "performer": [
          {
            "reference": "Practitioner/Practitioner-2535",
            "display": "Clifton Terrence Carey MD"
          }
        ],
        "valueQuantity": {
          "value": 83.30258115397959,
          "unit": "mmHg"
        }
      },
      "request": {
        "method": "PUT",
        "url": "http://localhost:8080/cqf-ruler/baseDstu3/Observation/Observation-245094"
      }
    },
    {
      "fullUrl": "http://localhost:8080/cqf-ruler/baseDstu3/DiagnosticReport/DiagnosticReport-245088",
      "resource": {
        "resourceType": "DiagnosticReport",
        "id": "DiagnosticReport-245088",
        "status": "final",
        "code": {
          "coding": [
            {
              "system": "http://loinc.org",
              "code": "8716-3",
              "display": "Vital Signs Panel"
            }
          ]
        },
        "subject": {
          "reference": "Patient/Patient-6498",
          "display": "Marie Kerr Koch"
        },
        "context": {
          "reference": "Encounter/Encounter-1179",
          "display": "Pediatric and Adult Medicine"
        },
        "effectivePeriod": {
          "start": "2000-08-05T02:00:00-04:00",
          "end": "2000-08-05T02:00:00-04:00"
        },
        "issued": "2000-08-05T02:00:00.000-04:00",
        "result": [
          {
            "reference": "Observation/Observation-245089",
            "display": "Height"
          },
          {
            "reference": "Observation/Observation-245090",
            "display": "Weight"
          },
          {
            "reference": "Observation/Observation-245091",
            "display": "BMI"
          },
          {
            "reference": "Observation/Observation-245092",
            "display": "Temperature"
          },
          {
            "reference": "Observation/Observation-245093",
            "display": "Systolic Blood Pressure"
          },
          {
            "reference": "Observation/Observation-245094",
            "display": "Diastolic Blood Pressure"
          }
        ]
      },
      "request": {
        "method": "PUT",
        "url": "http://localhost:8080/cqf-ruler/baseDstu3/DiagnosticReport/DiagnosticReport-245088"
      }
    }
  ]
}