{
  "resourceType": "Bundle",
  "id": "Catherine-Reyes-Herman-6485-Encounter-4148",
  "type": "transaction",
  "entry": [
    {
      "fullUrl": "http://localhost:8080/cqf-ruler/baseDstu3/Encounter/Encounter-4148",
      "resource": {
        "resourceType": "Encounter",
        "id": "Encounter-4148",
        "meta": {
          "profile": [
            "http://hl7.org/fhir/us/hedis/StructureDefinition/hedis-encounter"
          ]
        },
        "status": "finished",
        "class": {
          "system": "http://hl7.org/fhir/encounter-class",
          "code": "outpatient",
          "display": "Outpatient"
        },
        "type": [
          {
            "coding": [
              {
                "system": "http://www.ama-assn.org/go/cpt",
                "code": "99078",
                "display": "GROUP HEALTH EDUCATION"
              }
            ]
          }
        ],
        "subject": {
          "reference": "Patient/Patient-6485",
          "display": "Catherine Reyes Herman"
        },
        "participant": [
          {
            "period": {
              "start": "2017-08-11T01:00:00-04:00",
              "end": "2017-08-11T01:00:00-04:00"
            },
            "individual": {
              "reference": "Practitioner/Practitioner-2522",
              "display": "Lois Jean Kent MD"
            }
          }
        ],
        "period": {
          "start": "2017-08-11T01:00:00-04:00",
          "end": "2017-08-11T01:00:00-04:00"
        },
        "reason": [
          {
            "coding": [
              {
                "system": "http://snomed.info/sct",
                "code": "310495003",
                "display": "Mild depression (disorder)"
              }
            ]
          }
        ],
        "location": [
          {
            "location": {
              "reference": "Location/Location-1101",
              "display": "McKinley Health Center"
            }
          }
        ],
        "serviceProvider": {
          "reference": "Organization/Organization-1101",
          "display": "McKinley Health Center"
        }
      },
      "request": {
        "method": "PUT",
        "url": "http://localhost:8080/cqf-ruler/baseDstu3/Encounter/Encounter-4148"
      }
    },
    {
      "fullUrl": "http://localhost:8080/cqf-ruler/baseDstu3/Procedure/Procedure-686029",
      "resource": {
        "resourceType": "Procedure",
        "id": "Procedure-686029",
        "meta": {
          "profile": [
            "http://hl7.org/fhir/us/hedis/StructureDefinition/hedis-procedure"
          ]
        },
        "status": "completed",
        "code": {
          "coding": [
            {
              "system": "http://test",
              "code": "2.16.840.1.113883.3.67.1.101.11.723",
              "display": "2.16.840.1.113883.3.67.1.101.11.723"
            }
          ]
        },
        "subject": {
          "reference": "Patient/Patient-6485",
          "display": "Catherine Reyes Herman"
        },
        "context": {
          "reference": "Encounter/Encounter-4148",
          "display": "DRR_Encounter"
        },
        "performedPeriod": {
          "start": "2017-08-11T01:00:00-04:00",
          "end": "2017-08-11T01:00:00-04:00"
        },
        "performer": [
          {
            "actor": {
              "reference": "Practitioner/Practitioner-2522",
              "display": "Lois Jean Kent MD"
            }
          }
        ],
        "location": {
          "reference": "Location/Location-1101",
          "display": "McKinley Health Center"
        }
      },
      "request": {
        "method": "PUT",
        "url": "http://localhost:8080/cqf-ruler/baseDstu3/Procedure/Procedure-686029"
      }
    },
    {
      "fullUrl": "http://localhost:8080/cqf-ruler/baseDstu3/Observation/Observation-686030",
      "resource": {
        "resourceType": "Observation",
        "id": "Observation-686030",
        "meta": {
          "profile": [
            "http://hl7.org/fhir/us/hedis/StructureDefinition/hedis-observation"
          ]
        },
        "status": "final",
        "code": {
          "coding": [
            {
              "system": "http://cqframework.info/codesystem/placeholder",
              "code": "00009",
              "display": "PHQ-9 Modified Score"
            }
          ]
        },
        "subject": {
          "reference": "Patient/Patient-6485",
          "display": "Catherine Reyes Herman"
        },
        "context": {
          "reference": "Encounter/Encounter-4148",
          "display": "DRR_Encounter"
        },
        "effectiveDateTime": "2017-08-11T01:00:00-04:00",
        "performer": [
          {
            "reference": "Practitioner/Practitioner-2522",
            "display": "Lois Jean Kent MD"
          }
        ],
        "valueQuantity": {
          "value": 0.0,
          "unit": "score"
        }
      },
      "request": {
        "method": "PUT",
        "url": "http://localhost:8080/cqf-ruler/baseDstu3/Observation/Observation-686030"
      }
    },
    {
      "fullUrl": "http://localhost:8080/cqf-ruler/baseDstu3/DiagnosticReport/DiagnosticReport-686031",
      "resource": {
        "resourceType": "DiagnosticReport",
        "id": "DiagnosticReport-686031",
        "meta": {
          "profile": [
            "http://hl7.org/fhir/us/hedis/StructureDefinition/hedis-diagnosticreport"
          ]
        },
        "status": "final",
        "category": {
          "coding": [
            {
              "system": "http://hl7.org/fhir/ValueSet/diagnostic-service-sections",
              "code": "OTH",
              "display": "Other"
            }
          ]
        },
        "code": {
          "coding": [
            {
              "system": "http://snomed.info/sct",
              "code": "15639000",
              "display": "Moderate major depression, single episode (disorder)"
            }
          ]
        },
        "subject": {
          "reference": "Patient/Patient-6485",
          "display": "Catherine Reyes Herman"
        },
        "context": {
          "reference": "Encounter/Encounter-4148",
          "display": "DRR_Encounter"
        },
        "effectivePeriod": {
          "start": "2017-08-11T01:00:00-04:00",
          "end": "2017-08-11T01:00:00-04:00"
        },
        "issued": "2017-08-11T01:00:00.000-04:00"
      },
      "request": {
        "method": "PUT",
        "url": "http://localhost:8080/cqf-ruler/baseDstu3/DiagnosticReport/DiagnosticReport-686031"
      }
    },
    {
      "fullUrl": "http://localhost:8080/cqf-ruler/baseDstu3/Observation/Observation-686034",
      "resource": {
        "resourceType": "Observation",
        "id": "Observation-686034",
        "status": "final",
        "code": {
          "coding": [
            {
              "system": "http://loinc.org",
              "code": "8302-2",
              "display": "Height"
            }
          ]
        },
        "subject": {
          "reference": "Patient/Patient-6485",
          "display": "Catherine Reyes Herman"
        },
        "context": {
          "reference": "Encounter/Encounter-4148",
          "display": "DRR_Encounter"
        },
        "effectiveDateTime": "2017-08-11T01:00:00-04:00",
        "performer": [
          {
            "reference": "Practitioner/Practitioner-2522",
            "display": "Lois Jean Kent MD"
          }
        ],
        "valueQuantity": {
          "value": 162.8,
          "unit": "cm"
        }
      },
      "request": {
        "method": "PUT",
        "url": "http://localhost:8080/cqf-ruler/baseDstu3/Observation/Observation-686034"
      }
    },
    {
      "fullUrl": "http://localhost:8080/cqf-ruler/baseDstu3/Observation/Observation-686035",
      "resource": {
        "resourceType": "Observation",
        "id": "Observation-686035",
        "status": "final",
        "code": {
          "coding": [
            {
              "system": "http://loinc.org",
              "code": "29463-7",
              "display": "Weight"
            }
          ]
        },
        "subject": {
          "reference": "Patient/Patient-6485",
          "display": "Catherine Reyes Herman"
        },
        "context": {
          "reference": "Encounter/Encounter-4148",
          "display": "DRR_Encounter"
        },
        "effectiveDateTime": "2017-08-11T01:00:00-04:00",
        "performer": [
          {
            "reference": "Practitioner/Practitioner-2522",
            "display": "Lois Jean Kent MD"
          }
        ],
        "valueQuantity": {
          "value": 54.381608485365284,
          "unit": "kg"
        }
      },
      "request": {
        "method": "PUT",
        "url": "http://localhost:8080/cqf-ruler/baseDstu3/Observation/Observation-686035"
      }
    },
    {
      "fullUrl": "http://localhost:8080/cqf-ruler/baseDstu3/Observation/Observation-686036",
      "resource": {
        "resourceType": "Observation",
        "id": "Observation-686036",
        "status": "final",
        "code": {
          "coding": [
            {
              "system": "http://loinc.org",
              "code": "39156-5",
              "display": "BMI"
            }
          ]
        },
        "subject": {
          "reference": "Patient/Patient-6485",
          "display": "Catherine Reyes Herman"
        },
        "context": {
          "reference": "Encounter/Encounter-4148",
          "display": "DRR_Encounter"
        },
        "effectiveDateTime": "2017-08-11T01:00:00-04:00",
        "performer": [
          {
            "reference": "Practitioner/Practitioner-2522",
            "display": "Lois Jean Kent MD"
          }
        ],
        "valueQuantity": {
          "value": 20.51838846196071,
          "unit": "kg/m2"
        }
      },
      "request": {
        "method": "PUT",
        "url": "http://localhost:8080/cqf-ruler/baseDstu3/Observation/Observation-686036"
      }
    },
    {
      "fullUrl": "http://localhost:8080/cqf-ruler/baseDstu3/Observation/Observation-686037",
      "resource": {
        "resourceType": "Observation",
        "id": "Observation-686037",
        "status": "final",
        "code": {
          "coding": [
            {
              "system": "http://loinc.org",
              "code": "8310-5",
              "display": "Temperature"
            }
          ]
        },
        "subject": {
          "reference": "Patient/Patient-6485",
          "display": "Catherine Reyes Herman"
        },
        "context": {
          "reference": "Encounter/Encounter-4148",
          "display": "DRR_Encounter"
        },
        "effectiveDateTime": "2017-08-11T01:00:00-04:00",
        "performer": [
          {
            "reference": "Practitioner/Practitioner-2522",
            "display": "Lois Jean Kent MD"
          }
        ],
        "valueQuantity": {
          "value": 37.0,
          "unit": "C"
        }
      },
      "request": {
        "method": "PUT",
        "url": "http://localhost:8080/cqf-ruler/baseDstu3/Observation/Observation-686037"
      }
    },
    {
      "fullUrl": "http://localhost:8080/cqf-ruler/baseDstu3/Observation/Observation-686038",
      "resource": {
        "resourceType": "Observation",
        "id": "Observation-686038",
        "status": "final",
        "code": {
          "coding": [
            {
              "system": "http://loinc.org",
              "code": "8459-0",
              "display": "Systolic Blood Pressure"
            }
          ]
        },
        "subject": {
          "reference": "Patient/Patient-6485",
          "display": "Catherine Reyes Herman"
        },
        "context": {
          "reference": "Encounter/Encounter-4148",
          "display": "DRR_Encounter"
        },
        "effectiveDateTime": "2017-08-11T01:00:00-04:00",
        "performer": [
          {
            "reference": "Practitioner/Practitioner-2522",
            "display": "Lois Jean Kent MD"
          }
        ],
        "valueQuantity": {
          "value": 168.75408875138714,
          "unit": "mmHg"
        }
      },
      "request": {
        "method": "PUT",
        "url": "http://localhost:8080/cqf-ruler/baseDstu3/Observation/Observation-686038"
      }
    },
    {
      "fullUrl": "http://localhost:8080/cqf-ruler/baseDstu3/Observation/Observation-686039",
      "resource": {
        "resourceType": "Observation",
        "id": "Observation-686039",
        "status": "final",
        "code": {
          "coding": [
            {
              "system": "http://loinc.org",
              "code": "8453-3",
              "display": "Diastolic Blood Pressure"
            }
          ]
        },
        "subject": {
          "reference": "Patient/Patient-6485",
          "display": "Catherine Reyes Herman"
        },
        "context": {
          "reference": "Encounter/Encounter-4148",
          "display": "DRR_Encounter"
        },
        "effectiveDateTime": "2017-08-11T01:00:00-04:00",
        "performer": [
          {
            "reference": "Practitioner/Practitioner-2522",
            "display": "Lois Jean Kent MD"
          }
        ],
        "valueQuantity": {
          "value": 65.84142567837624,
          "unit": "mmHg"
        }
      },
      "request": {
        "method": "PUT",
        "url": "http://localhost:8080/cqf-ruler/baseDstu3/Observation/Observation-686039"
      }
    },
    {
      "fullUrl": "http://localhost:8080/cqf-ruler/baseDstu3/DiagnosticReport/DiagnosticReport-686033",
      "resource": {
        "resourceType": "DiagnosticReport",
        "id": "DiagnosticReport-686033",
        "meta": {
          "profile": [
            "http://hl7.org/fhir/us/hedis/StructureDefinition/hedis-diagnosticreport"
          ]
        },
        "status": "final",
        "category": {
          "coding": [
            {
              "system": "http://hl7.org/fhir/ValueSet/diagnostic-service-sections",
              "code": "LAB",
              "display": "Laboratory"
            }
          ]
        },
        "code": {
          "coding": [
            {
              "system": "http://loinc.org",
              "code": "8716-3",
              "display": "Vital Signs Panel"
            }
          ]
        },
        "subject": {
          "reference": "Patient/Patient-6485",
          "display": "Catherine Reyes Herman"
        },
        "context": {
          "reference": "Encounter/Encounter-4148",
          "display": "DRR_Encounter"
        },
        "effectivePeriod": {
          "start": "2017-08-11T01:00:00-04:00",
          "end": "2017-08-11T01:00:00-04:00"
        },
        "issued": "2017-08-11T01:00:00.000-04:00",
        "result": [
          {
            "reference": "Observation/Observation-686034",
            "display": "Height"
          },
          {
            "reference": "Observation/Observation-686035",
            "display": "Weight"
          },
          {
            "reference": "Observation/Observation-686036",
            "display": "BMI"
          },
          {
            "reference": "Observation/Observation-686037",
            "display": "Temperature"
          },
          {
            "reference": "Observation/Observation-686038",
            "display": "Systolic Blood Pressure"
          },
          {
            "reference": "Observation/Observation-686039",
            "display": "Diastolic Blood Pressure"
          }
        ]
      },
      "request": {
        "method": "PUT",
        "url": "http://localhost:8080/cqf-ruler/baseDstu3/DiagnosticReport/DiagnosticReport-686033"
      }
    }
  ]
}