{
  "resourceType": "Bundle",
  "id": "Catherine Reyes Herman-6485-Encounter-1232",
  "type": "transaction",
  "entry": [
    {
      "fullUrl": "http://localhost:8080/cqf-ruler/baseDstu3/Encounter/Encounter-1232",
      "resource": {
        "resourceType": "Encounter",
        "id": "Encounter-1232",
        "status": "finished",
        "class": {
          "system": "http://hl7.org/fhir/encounter-class",
          "code": "outpatient",
          "display": "Inpatient"
        },
        "subject": {
          "reference": "Patient/Patient-6485",
          "display": "Catherine Reyes Herman"
        },
        "participant": [
          {
            "period": {
              "start": "2000-05-05T19:00:00-04:00",
              "end": "2000-05-05T19:00:00-04:00"
            },
            "individual": {
              "reference": "Practitioner/Practitioner-2522",
              "display": "Lois Jean Kent MD"
            }
          }
        ],
        "period": {
          "start": "2000-05-05T19:00:00-04:00",
          "end": "2000-05-05T19:00:00-04:00"
        },
        "location": [
          {
            "location": {
              "reference": "Location/Location-1101",
              "display": "McKinley Health Center"
            }
          }
        ],
        "serviceProvider": {
          "reference": "Organization/Organization-1101",
          "display": "McKinley Health Center"
        }
      },
      "request": {
        "method": "PUT",
        "url": "http://localhost:8080/cqf-ruler/baseDstu3/Encounter/Encounter-1232"
      }
    },
    {
      "fullUrl": "http://localhost:8080/cqf-ruler/baseDstu3/Observation/Observation-239195",
      "resource": {
        "resourceType": "Observation",
        "id": "Observation-239195",
        "status": "final",
        "code": {
          "coding": [
            {
              "system": "http://loinc.org",
              "code": "8302-2",
              "display": "Height"
            }
          ]
        },
        "subject": {
          "reference": "Patient/Patient-6485",
          "display": "Catherine Reyes Herman"
        },
        "context": {
          "reference": "Encounter/Encounter-1232",
          "display": "McKinley Health Center"
        },
        "effectiveDateTime": "2000-05-05T19:00:00-04:00",
        "performer": [
          {
            "reference": "Practitioner/Practitioner-2522",
            "display": "Lois Jean Kent MD"
          }
        ],
        "valueQuantity": {
          "value": 0.0,
          "unit": "cm"
        }
      },
      "request": {
        "method": "PUT",
        "url": "http://localhost:8080/cqf-ruler/baseDstu3/Observation/Observation-239195"
      }
    },
    {
      "fullUrl": "http://localhost:8080/cqf-ruler/baseDstu3/Observation/Observation-239196",
      "resource": {
        "resourceType": "Observation",
        "id": "Observation-239196",
        "status": "final",
        "code": {
          "coding": [
            {
              "system": "http://loinc.org",
              "code": "29463-7",
              "display": "Weight"
            }
          ]
        },
        "subject": {
          "reference": "Patient/Patient-6485",
          "display": "Catherine Reyes Herman"
        },
        "context": {
          "reference": "Encounter/Encounter-1232",
          "display": "McKinley Health Center"
        },
        "effectiveDateTime": "2000-05-05T19:00:00-04:00",
        "performer": [
          {
            "reference": "Practitioner/Practitioner-2522",
            "display": "Lois Jean Kent MD"
          }
        ],
        "valueQuantity": {
          "value": 0.0,
          "unit": "kg"
        }
      },
      "request": {
        "method": "PUT",
        "url": "http://localhost:8080/cqf-ruler/baseDstu3/Observation/Observation-239196"
      }
    },
    {
      "fullUrl": "http://localhost:8080/cqf-ruler/baseDstu3/Observation/Observation-239197",
      "resource": {
        "resourceType": "Observation",
        "id": "Observation-239197",
        "status": "final",
        "code": {
          "coding": [
            {
              "system": "http://loinc.org",
              "code": "39156-5",
              "display": "BMI"
            }
          ]
        },
        "subject": {
          "reference": "Patient/Patient-6485",
          "display": "Catherine Reyes Herman"
        },
        "context": {
          "reference": "Encounter/Encounter-1232",
          "display": "McKinley Health Center"
        },
        "effectiveDateTime": "2000-05-05T19:00:00-04:00",
        "performer": [
          {
            "reference": "Practitioner/Practitioner-2522",
            "display": "Lois Jean Kent MD"
          }
        ],
        "valueQuantity": {
          "value": 0.0,
          "unit": "kg/m2"
        }
      },
      "request": {
        "method": "PUT",
        "url": "http://localhost:8080/cqf-ruler/baseDstu3/Observation/Observation-239197"
      }
    },
    {
      "fullUrl": "http://localhost:8080/cqf-ruler/baseDstu3/Observation/Observation-239198",
      "resource": {
        "resourceType": "Observation",
        "id": "Observation-239198",
        "status": "final",
        "code": {
          "coding": [
            {
              "system": "http://loinc.org",
              "code": "8310-5",
              "display": "Temperature"
            }
          ]
        },
        "subject": {
          "reference": "Patient/Patient-6485",
          "display": "Catherine Reyes Herman"
        },
        "context": {
          "reference": "Encounter/Encounter-1232",
          "display": "McKinley Health Center"
        },
        "effectiveDateTime": "2000-05-05T19:00:00-04:00",
        "performer": [
          {
            "reference": "Practitioner/Practitioner-2522",
            "display": "Lois Jean Kent MD"
          }
        ],
        "valueQuantity": {
          "value": 37.0,
          "unit": "C"
        }
      },
      "request": {
        "method": "PUT",
        "url": "http://localhost:8080/cqf-ruler/baseDstu3/Observation/Observation-239198"
      }
    },
    {
      "fullUrl": "http://localhost:8080/cqf-ruler/baseDstu3/Observation/Observation-239199",
      "resource": {
        "resourceType": "Observation",
        "id": "Observation-239199",
        "status": "final",
        "code": {
          "coding": [
            {
              "system": "http://loinc.org",
              "code": "8459-0",
              "display": "Systolic Blood Pressure"
            }
          ]
        },
        "subject": {
          "reference": "Patient/Patient-6485",
          "display": "Catherine Reyes Herman"
        },
        "context": {
          "reference": "Encounter/Encounter-1232",
          "display": "McKinley Health Center"
        },
        "effectiveDateTime": "2000-05-05T19:00:00-04:00",
        "performer": [
          {
            "reference": "Practitioner/Practitioner-2522",
            "display": "Lois Jean Kent MD"
          }
        ],
        "valueQuantity": {
          "value": 135.0150386667251,
          "unit": "mmHg"
        }
      },
      "request": {
        "method": "PUT",
        "url": "http://localhost:8080/cqf-ruler/baseDstu3/Observation/Observation-239199"
      }
    },
    {
      "fullUrl": "http://localhost:8080/cqf-ruler/baseDstu3/Observation/Observation-239200",
      "resource": {
        "resourceType": "Observation",
        "id": "Observation-239200",
        "status": "final",
        "code": {
          "coding": [
            {
              "system": "http://loinc.org",
              "code": "8453-3",
              "display": "Diastolic Blood Pressure"
            }
          ]
        },
        "subject": {
          "reference": "Patient/Patient-6485",
          "display": "Catherine Reyes Herman"
        },
        "context": {
          "reference": "Encounter/Encounter-1232",
          "display": "McKinley Health Center"
        },
        "effectiveDateTime": "2000-05-05T19:00:00-04:00",
        "performer": [
          {
            "reference": "Practitioner/Practitioner-2522",
            "display": "Lois Jean Kent MD"
          }
        ],
        "valueQuantity": {
          "value": 78.80097174434482,
          "unit": "mmHg"
        }
      },
      "request": {
        "method": "PUT",
        "url": "http://localhost:8080/cqf-ruler/baseDstu3/Observation/Observation-239200"
      }
    },
    {
      "fullUrl": "http://localhost:8080/cqf-ruler/baseDstu3/DiagnosticReport/DiagnosticReport-239194",
      "resource": {
        "resourceType": "DiagnosticReport",
        "id": "DiagnosticReport-239194",
        "status": "final",
        "code": {
          "coding": [
            {
              "system": "http://loinc.org",
              "code": "8716-3",
              "display": "Vital Signs Panel"
            }
          ]
        },
        "subject": {
          "reference": "Patient/Patient-6485",
          "display": "Catherine Reyes Herman"
        },
        "context": {
          "reference": "Encounter/Encounter-1232",
          "display": "McKinley Health Center"
        },
        "effectivePeriod": {
          "start": "2000-05-05T19:00:00-04:00",
          "end": "2000-05-05T19:00:00-04:00"
        },
        "issued": "2000-05-05T19:00:00.000-04:00",
        "result": [
          {
            "reference": "Observation/Observation-239195",
            "display": "Height"
          },
          {
            "reference": "Observation/Observation-239196",
            "display": "Weight"
          },
          {
            "reference": "Observation/Observation-239197",
            "display": "BMI"
          },
          {
            "reference": "Observation/Observation-239198",
            "display": "Temperature"
          },
          {
            "reference": "Observation/Observation-239199",
            "display": "Systolic Blood Pressure"
          },
          {
            "reference": "Observation/Observation-239200",
            "display": "Diastolic Blood Pressure"
          }
        ]
      },
      "request": {
        "method": "PUT",
        "url": "http://localhost:8080/cqf-ruler/baseDstu3/DiagnosticReport/DiagnosticReport-239194"
      }
    }
  ]
}