{
  "resourceType": "Bundle",
  "id": "Jamie Davis Baird Jr-6505-Encounter-2148",
  "type": "transaction",
  "entry": [
    {
      "fullUrl": "http://localhost:8080/cqf-ruler/baseDstu3/Encounter/Encounter-2148",
      "resource": {
        "resourceType": "Encounter",
        "id": "Encounter-2148",
        "status": "finished",
        "class": {
          "system": "http://hl7.org/fhir/encounter-class",
          "code": "outpatient",
          "display": "Inpatient"
        },
        "subject": {
          "reference": "Patient/Patient-6505",
          "display": "Jamie Davis Baird Jr"
        },
        "participant": [
          {
            "period": {
              "start": "2010-10-17T16:00:00-04:00",
              "end": "2010-10-17T16:00:00-04:00"
            },
            "individual": {
              "reference": "Practitioner/Practitioner-2522",
              "display": "Lois Jean Kent MD"
            }
          }
        ],
        "period": {
          "start": "2010-10-17T16:00:00-04:00",
          "end": "2010-10-17T16:00:00-04:00"
        },
        "location": [
          {
            "location": {
              "reference": "Location/Location-1101",
              "display": "McKinley Health Center"
            }
          }
        ],
        "serviceProvider": {
          "reference": "Organization/Organization-1101",
          "display": "McKinley Health Center"
        }
      },
      "request": {
        "method": "PUT",
        "url": "http://localhost:8080/cqf-ruler/baseDstu3/Encounter/Encounter-2148"
      }
    },
    {
      "fullUrl": "http://localhost:8080/cqf-ruler/baseDstu3/Observation/Observation-467365",
      "resource": {
        "resourceType": "Observation",
        "id": "Observation-467365",
        "status": "final",
        "code": {
          "coding": [
            {
              "system": "http://loinc.org",
              "code": "8302-2",
              "display": "Height"
            }
          ]
        },
        "subject": {
          "reference": "Patient/Patient-6505",
          "display": "Jamie Davis Baird Jr"
        },
        "context": {
          "reference": "Encounter/Encounter-2148",
          "display": "McKinley Health Center"
        },
        "effectiveDateTime": "2010-10-17T16:00:00-04:00",
        "performer": [
          {
            "reference": "Practitioner/Practitioner-2522",
            "display": "Lois Jean Kent MD"
          }
        ],
        "valueQuantity": {
          "value": 0.0,
          "unit": "cm"
        }
      },
      "request": {
        "method": "PUT",
        "url": "http://localhost:8080/cqf-ruler/baseDstu3/Observation/Observation-467365"
      }
    },
    {
      "fullUrl": "http://localhost:8080/cqf-ruler/baseDstu3/Observation/Observation-467366",
      "resource": {
        "resourceType": "Observation",
        "id": "Observation-467366",
        "status": "final",
        "code": {
          "coding": [
            {
              "system": "http://loinc.org",
              "code": "29463-7",
              "display": "Weight"
            }
          ]
        },
        "subject": {
          "reference": "Patient/Patient-6505",
          "display": "Jamie Davis Baird Jr"
        },
        "context": {
          "reference": "Encounter/Encounter-2148",
          "display": "McKinley Health Center"
        },
        "effectiveDateTime": "2010-10-17T16:00:00-04:00",
        "performer": [
          {
            "reference": "Practitioner/Practitioner-2522",
            "display": "Lois Jean Kent MD"
          }
        ],
        "valueQuantity": {
          "value": 0.0,
          "unit": "kg"
        }
      },
      "request": {
        "method": "PUT",
        "url": "http://localhost:8080/cqf-ruler/baseDstu3/Observation/Observation-467366"
      }
    },
    {
      "fullUrl": "http://localhost:8080/cqf-ruler/baseDstu3/Observation/Observation-467367",
      "resource": {
        "resourceType": "Observation",
        "id": "Observation-467367",
        "status": "final",
        "code": {
          "coding": [
            {
              "system": "http://loinc.org",
              "code": "39156-5",
              "display": "BMI"
            }
          ]
        },
        "subject": {
          "reference": "Patient/Patient-6505",
          "display": "Jamie Davis Baird Jr"
        },
        "context": {
          "reference": "Encounter/Encounter-2148",
          "display": "McKinley Health Center"
        },
        "effectiveDateTime": "2010-10-17T16:00:00-04:00",
        "performer": [
          {
            "reference": "Practitioner/Practitioner-2522",
            "display": "Lois Jean Kent MD"
          }
        ],
        "valueQuantity": {
          "value": 0.0,
          "unit": "kg/m2"
        }
      },
      "request": {
        "method": "PUT",
        "url": "http://localhost:8080/cqf-ruler/baseDstu3/Observation/Observation-467367"
      }
    },
    {
      "fullUrl": "http://localhost:8080/cqf-ruler/baseDstu3/Observation/Observation-467368",
      "resource": {
        "resourceType": "Observation",
        "id": "Observation-467368",
        "status": "final",
        "code": {
          "coding": [
            {
              "system": "http://loinc.org",
              "code": "8310-5",
              "display": "Temperature"
            }
          ]
        },
        "subject": {
          "reference": "Patient/Patient-6505",
          "display": "Jamie Davis Baird Jr"
        },
        "context": {
          "reference": "Encounter/Encounter-2148",
          "display": "McKinley Health Center"
        },
        "effectiveDateTime": "2010-10-17T16:00:00-04:00",
        "performer": [
          {
            "reference": "Practitioner/Practitioner-2522",
            "display": "Lois Jean Kent MD"
          }
        ],
        "valueQuantity": {
          "value": 37.0,
          "unit": "C"
        }
      },
      "request": {
        "method": "PUT",
        "url": "http://localhost:8080/cqf-ruler/baseDstu3/Observation/Observation-467368"
      }
    },
    {
      "fullUrl": "http://localhost:8080/cqf-ruler/baseDstu3/Observation/Observation-467369",
      "resource": {
        "resourceType": "Observation",
        "id": "Observation-467369",
        "status": "final",
        "code": {
          "coding": [
            {
              "system": "http://loinc.org",
              "code": "8459-0",
              "display": "Systolic Blood Pressure"
            }
          ]
        },
        "subject": {
          "reference": "Patient/Patient-6505",
          "display": "Jamie Davis Baird Jr"
        },
        "context": {
          "reference": "Encounter/Encounter-2148",
          "display": "McKinley Health Center"
        },
        "effectiveDateTime": "2010-10-17T16:00:00-04:00",
        "performer": [
          {
            "reference": "Practitioner/Practitioner-2522",
            "display": "Lois Jean Kent MD"
          }
        ],
        "valueQuantity": {
          "value": 126.20717910704187,
          "unit": "mmHg"
        }
      },
      "request": {
        "method": "PUT",
        "url": "http://localhost:8080/cqf-ruler/baseDstu3/Observation/Observation-467369"
      }
    },
    {
      "fullUrl": "http://localhost:8080/cqf-ruler/baseDstu3/Observation/Observation-467370",
      "resource": {
        "resourceType": "Observation",
        "id": "Observation-467370",
        "status": "final",
        "code": {
          "coding": [
            {
              "system": "http://loinc.org",
              "code": "8453-3",
              "display": "Diastolic Blood Pressure"
            }
          ]
        },
        "subject": {
          "reference": "Patient/Patient-6505",
          "display": "Jamie Davis Baird Jr"
        },
        "context": {
          "reference": "Encounter/Encounter-2148",
          "display": "McKinley Health Center"
        },
        "effectiveDateTime": "2010-10-17T16:00:00-04:00",
        "performer": [
          {
            "reference": "Practitioner/Practitioner-2522",
            "display": "Lois Jean Kent MD"
          }
        ],
        "valueQuantity": {
          "value": 79.34286422359129,
          "unit": "mmHg"
        }
      },
      "request": {
        "method": "PUT",
        "url": "http://localhost:8080/cqf-ruler/baseDstu3/Observation/Observation-467370"
      }
    },
    {
      "fullUrl": "http://localhost:8080/cqf-ruler/baseDstu3/DiagnosticReport/DiagnosticReport-467364",
      "resource": {
        "resourceType": "DiagnosticReport",
        "id": "DiagnosticReport-467364",
        "status": "final",
        "code": {
          "coding": [
            {
              "system": "http://loinc.org",
              "code": "8716-3",
              "display": "Vital Signs Panel"
            }
          ]
        },
        "subject": {
          "reference": "Patient/Patient-6505",
          "display": "Jamie Davis Baird Jr"
        },
        "context": {
          "reference": "Encounter/Encounter-2148",
          "display": "McKinley Health Center"
        },
        "effectivePeriod": {
          "start": "2010-10-17T16:00:00-04:00",
          "end": "2010-10-17T16:00:00-04:00"
        },
        "issued": "2010-10-17T16:00:00.000-04:00",
        "result": [
          {
            "reference": "Observation/Observation-467365",
            "display": "Height"
          },
          {
            "reference": "Observation/Observation-467366",
            "display": "Weight"
          },
          {
            "reference": "Observation/Observation-467367",
            "display": "BMI"
          },
          {
            "reference": "Observation/Observation-467368",
            "display": "Temperature"
          },
          {
            "reference": "Observation/Observation-467369",
            "display": "Systolic Blood Pressure"
          },
          {
            "reference": "Observation/Observation-467370",
            "display": "Diastolic Blood Pressure"
          }
        ]
      },
      "request": {
        "method": "PUT",
        "url": "http://localhost:8080/cqf-ruler/baseDstu3/DiagnosticReport/DiagnosticReport-467364"
      }
    }
  ]
}