{
  "resourceType": "Bundle",
  "id": "Jamie-Davis-Baird-Jr-6505-Encounter-4291",
  "type": "transaction",
  "entry": [
    {
      "fullUrl": "http://localhost:8080/cqf-ruler/baseDstu3/Encounter/Encounter-4291",
      "resource": {
        "resourceType": "Encounter",
        "id": "Encounter-4291",
        "meta": {
          "profile": [
            "http://hl7.org/fhir/us/hedis/StructureDefinition/hedis-encounter"
          ]
        },
        "status": "finished",
        "class": {
          "system": "http://hl7.org/fhir/encounter-class",
          "code": "outpatient",
          "display": "Outpatient"
        },
        "type": [
          {
            "coding": [
              {
                "system": "http://www.ama-assn.org/go/cpt",
                "code": "99245",
                "display": "OFFICE CONSULTATION"
              }
            ]
          }
        ],
        "subject": {
          "reference": "Patient/Patient-6505",
          "display": "Jamie Davis Baird Jr"
        },
        "participant": [
          {
            "period": {
              "start": "2017-09-19T00:00:00-04:00",
              "end": "2017-09-19T00:00:00-04:00"
            },
            "individual": {
              "reference": "Practitioner/Practitioner-2522",
              "display": "Lois Jean Kent MD"
            }
          }
        ],
        "period": {
          "start": "2017-09-19T00:00:00-04:00",
          "end": "2017-09-19T00:00:00-04:00"
        },
        "reason": [
          {
            "coding": [
              {
                "system": "http://snomed.info/sct",
                "code": "310495003",
                "display": "Mild depression (disorder)"
              }
            ]
          }
        ],
        "location": [
          {
            "location": {
              "reference": "Location/Location-1101",
              "display": "McKinley Health Center"
            }
          }
        ],
        "serviceProvider": {
          "reference": "Organization/Organization-1101",
          "display": "McKinley Health Center"
        }
      },
      "request": {
        "method": "PUT",
        "url": "http://localhost:8080/cqf-ruler/baseDstu3/Encounter/Encounter-4291"
      }
    },
    {
      "fullUrl": "http://localhost:8080/cqf-ruler/baseDstu3/Procedure/Procedure-690180",
      "resource": {
        "resourceType": "Procedure",
        "id": "Procedure-690180",
        "meta": {
          "profile": [
            "http://hl7.org/fhir/us/hedis/StructureDefinition/hedis-procedure"
          ]
        },
        "status": "completed",
        "code": {
          "coding": [
            {
              "system": "http://test",
              "code": "2.16.840.1.113883.3.67.1.101.11.723",
              "display": "2.16.840.1.113883.3.67.1.101.11.723"
            }
          ]
        },
        "subject": {
          "reference": "Patient/Patient-6505",
          "display": "Jamie Davis Baird Jr"
        },
        "context": {
          "reference": "Encounter/Encounter-4291",
          "display": "DRR_Encounter"
        },
        "performedPeriod": {
          "start": "2017-09-19T00:00:00-04:00",
          "end": "2017-09-19T00:00:00-04:00"
        },
        "performer": [
          {
            "actor": {
              "reference": "Practitioner/Practitioner-2522",
              "display": "Lois Jean Kent MD"
            }
          }
        ],
        "location": {
          "reference": "Location/Location-1101",
          "display": "McKinley Health Center"
        }
      },
      "request": {
        "method": "PUT",
        "url": "http://localhost:8080/cqf-ruler/baseDstu3/Procedure/Procedure-690180"
      }
    },
    {
      "fullUrl": "http://localhost:8080/cqf-ruler/baseDstu3/Observation/Observation-690181",
      "resource": {
        "resourceType": "Observation",
        "id": "Observation-690181",
        "meta": {
          "profile": [
            "http://hl7.org/fhir/us/hedis/StructureDefinition/hedis-observation"
          ]
        },
        "status": "final",
        "code": {
          "coding": [
            {
              "system": "http://cqframework.info/codesystem/placeholder",
              "code": "00009",
              "display": "PHQ-9 Modified Score"
            }
          ]
        },
        "subject": {
          "reference": "Patient/Patient-6505",
          "display": "Jamie Davis Baird Jr"
        },
        "context": {
          "reference": "Encounter/Encounter-4291",
          "display": "DRR_Encounter"
        },
        "effectiveDateTime": "2017-09-19T00:00:00-04:00",
        "performer": [
          {
            "reference": "Practitioner/Practitioner-2522",
            "display": "Lois Jean Kent MD"
          }
        ],
        "valueQuantity": {
          "value": 10.0,
          "unit": "score"
        }
      },
      "request": {
        "method": "PUT",
        "url": "http://localhost:8080/cqf-ruler/baseDstu3/Observation/Observation-690181"
      }
    },
    {
      "fullUrl": "http://localhost:8080/cqf-ruler/baseDstu3/DiagnosticReport/DiagnosticReport-690182",
      "resource": {
        "resourceType": "DiagnosticReport",
        "id": "DiagnosticReport-690182",
        "meta": {
          "profile": [
            "http://hl7.org/fhir/us/hedis/StructureDefinition/hedis-diagnosticreport"
          ]
        },
        "status": "final",
        "category": {
          "coding": [
            {
              "system": "http://hl7.org/fhir/ValueSet/diagnostic-service-sections",
              "code": "OTH",
              "display": "Other"
            }
          ]
        },
        "code": {
          "coding": [
            {
              "system": "http://hl7.org/fhir/sid/icd-10-cm",
              "code": "F33.2",
              "display": "[F33.2] Major depressive disorder, recurrent severe without psychotic features"
            }
          ]
        },
        "subject": {
          "reference": "Patient/Patient-6505",
          "display": "Jamie Davis Baird Jr"
        },
        "context": {
          "reference": "Encounter/Encounter-4291",
          "display": "DRR_Encounter"
        },
        "effectivePeriod": {
          "start": "2017-09-19T00:00:00-04:00",
          "end": "2017-09-19T00:00:00-04:00"
        },
        "issued": "2017-09-19T00:00:00.000-04:00"
      },
      "request": {
        "method": "PUT",
        "url": "http://localhost:8080/cqf-ruler/baseDstu3/DiagnosticReport/DiagnosticReport-690182"
      }
    },
    {
      "fullUrl": "http://localhost:8080/cqf-ruler/baseDstu3/Observation/Observation-690185",
      "resource": {
        "resourceType": "Observation",
        "id": "Observation-690185",
        "status": "final",
        "code": {
          "coding": [
            {
              "system": "http://loinc.org",
              "code": "8302-2",
              "display": "Height"
            }
          ]
        },
        "subject": {
          "reference": "Patient/Patient-6505",
          "display": "Jamie Davis Baird Jr"
        },
        "context": {
          "reference": "Encounter/Encounter-4291",
          "display": "DRR_Encounter"
        },
        "effectiveDateTime": "2017-09-19T00:00:00-04:00",
        "performer": [
          {
            "reference": "Practitioner/Practitioner-2522",
            "display": "Lois Jean Kent MD"
          }
        ],
        "valueQuantity": {
          "value": 115.1,
          "unit": "cm"
        }
      },
      "request": {
        "method": "PUT",
        "url": "http://localhost:8080/cqf-ruler/baseDstu3/Observation/Observation-690185"
      }
    },
    {
      "fullUrl": "http://localhost:8080/cqf-ruler/baseDstu3/Observation/Observation-690186",
      "resource": {
        "resourceType": "Observation",
        "id": "Observation-690186",
        "status": "final",
        "code": {
          "coding": [
            {
              "system": "http://loinc.org",
              "code": "29463-7",
              "display": "Weight"
            }
          ]
        },
        "subject": {
          "reference": "Patient/Patient-6505",
          "display": "Jamie Davis Baird Jr"
        },
        "context": {
          "reference": "Encounter/Encounter-4291",
          "display": "DRR_Encounter"
        },
        "effectiveDateTime": "2017-09-19T00:00:00-04:00",
        "performer": [
          {
            "reference": "Practitioner/Practitioner-2522",
            "display": "Lois Jean Kent MD"
          }
        ],
        "valueQuantity": {
          "value": 20.6,
          "unit": "kg"
        }
      },
      "request": {
        "method": "PUT",
        "url": "http://localhost:8080/cqf-ruler/baseDstu3/Observation/Observation-690186"
      }
    },
    {
      "fullUrl": "http://localhost:8080/cqf-ruler/baseDstu3/Observation/Observation-690187",
      "resource": {
        "resourceType": "Observation",
        "id": "Observation-690187",
        "status": "final",
        "code": {
          "coding": [
            {
              "system": "http://loinc.org",
              "code": "39156-5",
              "display": "BMI"
            }
          ]
        },
        "subject": {
          "reference": "Patient/Patient-6505",
          "display": "Jamie Davis Baird Jr"
        },
        "context": {
          "reference": "Encounter/Encounter-4291",
          "display": "DRR_Encounter"
        },
        "effectiveDateTime": "2017-09-19T00:00:00-04:00",
        "performer": [
          {
            "reference": "Practitioner/Practitioner-2522",
            "display": "Lois Jean Kent MD"
          }
        ],
        "valueQuantity": {
          "value": 15.549505170965299,
          "unit": "kg/m2"
        }
      },
      "request": {
        "method": "PUT",
        "url": "http://localhost:8080/cqf-ruler/baseDstu3/Observation/Observation-690187"
      }
    },
    {
      "fullUrl": "http://localhost:8080/cqf-ruler/baseDstu3/Observation/Observation-690188",
      "resource": {
        "resourceType": "Observation",
        "id": "Observation-690188",
        "status": "final",
        "code": {
          "coding": [
            {
              "system": "http://loinc.org",
              "code": "8310-5",
              "display": "Temperature"
            }
          ]
        },
        "subject": {
          "reference": "Patient/Patient-6505",
          "display": "Jamie Davis Baird Jr"
        },
        "context": {
          "reference": "Encounter/Encounter-4291",
          "display": "DRR_Encounter"
        },
        "effectiveDateTime": "2017-09-19T00:00:00-04:00",
        "performer": [
          {
            "reference": "Practitioner/Practitioner-2522",
            "display": "Lois Jean Kent MD"
          }
        ],
        "valueQuantity": {
          "value": 37.0,
          "unit": "C"
        }
      },
      "request": {
        "method": "PUT",
        "url": "http://localhost:8080/cqf-ruler/baseDstu3/Observation/Observation-690188"
      }
    },
    {
      "fullUrl": "http://localhost:8080/cqf-ruler/baseDstu3/Observation/Observation-690189",
      "resource": {
        "resourceType": "Observation",
        "id": "Observation-690189",
        "status": "final",
        "code": {
          "coding": [
            {
              "system": "http://loinc.org",
              "code": "8459-0",
              "display": "Systolic Blood Pressure"
            }
          ]
        },
        "subject": {
          "reference": "Patient/Patient-6505",
          "display": "Jamie Davis Baird Jr"
        },
        "context": {
          "reference": "Encounter/Encounter-4291",
          "display": "DRR_Encounter"
        },
        "effectiveDateTime": "2017-09-19T00:00:00-04:00",
        "performer": [
          {
            "reference": "Practitioner/Practitioner-2522",
            "display": "Lois Jean Kent MD"
          }
        ],
        "valueQuantity": {
          "value": 130.29416065757312,
          "unit": "mmHg"
        }
      },
      "request": {
        "method": "PUT",
        "url": "http://localhost:8080/cqf-ruler/baseDstu3/Observation/Observation-690189"
      }
    },
    {
      "fullUrl": "http://localhost:8080/cqf-ruler/baseDstu3/Observation/Observation-690190",
      "resource": {
        "resourceType": "Observation",
        "id": "Observation-690190",
        "status": "final",
        "code": {
          "coding": [
            {
              "system": "http://loinc.org",
              "code": "8453-3",
              "display": "Diastolic Blood Pressure"
            }
          ]
        },
        "subject": {
          "reference": "Patient/Patient-6505",
          "display": "Jamie Davis Baird Jr"
        },
        "context": {
          "reference": "Encounter/Encounter-4291",
          "display": "DRR_Encounter"
        },
        "effectiveDateTime": "2017-09-19T00:00:00-04:00",
        "performer": [
          {
            "reference": "Practitioner/Practitioner-2522",
            "display": "Lois Jean Kent MD"
          }
        ],
        "valueQuantity": {
          "value": 68.51188258095667,
          "unit": "mmHg"
        }
      },
      "request": {
        "method": "PUT",
        "url": "http://localhost:8080/cqf-ruler/baseDstu3/Observation/Observation-690190"
      }
    },
    {
      "fullUrl": "http://localhost:8080/cqf-ruler/baseDstu3/DiagnosticReport/DiagnosticReport-690184",
      "resource": {
        "resourceType": "DiagnosticReport",
        "id": "DiagnosticReport-690184",
        "meta": {
          "profile": [
            "http://hl7.org/fhir/us/hedis/StructureDefinition/hedis-diagnosticreport"
          ]
        },
        "status": "final",
        "category": {
          "coding": [
            {
              "system": "http://hl7.org/fhir/ValueSet/diagnostic-service-sections",
              "code": "LAB",
              "display": "Laboratory"
            }
          ]
        },
        "code": {
          "coding": [
            {
              "system": "http://loinc.org",
              "code": "8716-3",
              "display": "Vital Signs Panel"
            }
          ]
        },
        "subject": {
          "reference": "Patient/Patient-6505",
          "display": "Jamie Davis Baird Jr"
        },
        "context": {
          "reference": "Encounter/Encounter-4291",
          "display": "DRR_Encounter"
        },
        "effectivePeriod": {
          "start": "2017-09-19T00:00:00-04:00",
          "end": "2017-09-19T00:00:00-04:00"
        },
        "issued": "2017-09-19T00:00:00.000-04:00",
        "result": [
          {
            "reference": "Observation/Observation-690185",
            "display": "Height"
          },
          {
            "reference": "Observation/Observation-690186",
            "display": "Weight"
          },
          {
            "reference": "Observation/Observation-690187",
            "display": "BMI"
          },
          {
            "reference": "Observation/Observation-690188",
            "display": "Temperature"
          },
          {
            "reference": "Observation/Observation-690189",
            "display": "Systolic Blood Pressure"
          },
          {
            "reference": "Observation/Observation-690190",
            "display": "Diastolic Blood Pressure"
          }
        ]
      },
      "request": {
        "method": "PUT",
        "url": "http://localhost:8080/cqf-ruler/baseDstu3/DiagnosticReport/DiagnosticReport-690184"
      }
    }
  ]
}