{
  "resourceType": "Bundle",
  "id": "Jamie Davis Baird Jr-6505-Encounter-2223",
  "type": "transaction",
  "entry": [
    {
      "fullUrl": "http://localhost:8080/cqf-ruler/baseDstu3/Encounter/Encounter-2223",
      "resource": {
        "resourceType": "Encounter",
        "id": "Encounter-2223",
        "status": "finished",
        "class": {
          "system": "http://hl7.org/fhir/encounter-class",
          "code": "outpatient",
          "display": "Inpatient"
        },
        "subject": {
          "reference": "Patient/Patient-6505",
          "display": "Jamie Davis Baird Jr"
        },
        "participant": [
          {
            "period": {
              "start": "2011-03-18T18:00:00-04:00",
              "end": "2011-03-18T18:00:00-04:00"
            },
            "individual": {
              "reference": "Practitioner/Practitioner-2522",
              "display": "Lois Jean Kent MD"
            }
          }
        ],
        "period": {
          "start": "2011-03-18T18:00:00-04:00",
          "end": "2011-03-18T18:00:00-04:00"
        },
        "location": [
          {
            "location": {
              "reference": "Location/Location-1101",
              "display": "McKinley Health Center"
            }
          }
        ],
        "serviceProvider": {
          "reference": "Organization/Organization-1101",
          "display": "McKinley Health Center"
        }
      },
      "request": {
        "method": "PUT",
        "url": "http://localhost:8080/cqf-ruler/baseDstu3/Encounter/Encounter-2223"
      }
    },
    {
      "fullUrl": "http://localhost:8080/cqf-ruler/baseDstu3/Observation/Observation-477920",
      "resource": {
        "resourceType": "Observation",
        "id": "Observation-477920",
        "status": "final",
        "code": {
          "coding": [
            {
              "system": "http://loinc.org",
              "code": "8302-2",
              "display": "Height"
            }
          ]
        },
        "subject": {
          "reference": "Patient/Patient-6505",
          "display": "Jamie Davis Baird Jr"
        },
        "context": {
          "reference": "Encounter/Encounter-2223",
          "display": "McKinley Health Center"
        },
        "effectiveDateTime": "2011-03-18T18:00:00-04:00",
        "performer": [
          {
            "reference": "Practitioner/Practitioner-2522",
            "display": "Lois Jean Kent MD"
          }
        ],
        "valueQuantity": {
          "value": 0.0,
          "unit": "cm"
        }
      },
      "request": {
        "method": "PUT",
        "url": "http://localhost:8080/cqf-ruler/baseDstu3/Observation/Observation-477920"
      }
    },
    {
      "fullUrl": "http://localhost:8080/cqf-ruler/baseDstu3/Observation/Observation-477921",
      "resource": {
        "resourceType": "Observation",
        "id": "Observation-477921",
        "status": "final",
        "code": {
          "coding": [
            {
              "system": "http://loinc.org",
              "code": "29463-7",
              "display": "Weight"
            }
          ]
        },
        "subject": {
          "reference": "Patient/Patient-6505",
          "display": "Jamie Davis Baird Jr"
        },
        "context": {
          "reference": "Encounter/Encounter-2223",
          "display": "McKinley Health Center"
        },
        "effectiveDateTime": "2011-03-18T18:00:00-04:00",
        "performer": [
          {
            "reference": "Practitioner/Practitioner-2522",
            "display": "Lois Jean Kent MD"
          }
        ],
        "valueQuantity": {
          "value": 0.0,
          "unit": "kg"
        }
      },
      "request": {
        "method": "PUT",
        "url": "http://localhost:8080/cqf-ruler/baseDstu3/Observation/Observation-477921"
      }
    },
    {
      "fullUrl": "http://localhost:8080/cqf-ruler/baseDstu3/Observation/Observation-477922",
      "resource": {
        "resourceType": "Observation",
        "id": "Observation-477922",
        "status": "final",
        "code": {
          "coding": [
            {
              "system": "http://loinc.org",
              "code": "39156-5",
              "display": "BMI"
            }
          ]
        },
        "subject": {
          "reference": "Patient/Patient-6505",
          "display": "Jamie Davis Baird Jr"
        },
        "context": {
          "reference": "Encounter/Encounter-2223",
          "display": "McKinley Health Center"
        },
        "effectiveDateTime": "2011-03-18T18:00:00-04:00",
        "performer": [
          {
            "reference": "Practitioner/Practitioner-2522",
            "display": "Lois Jean Kent MD"
          }
        ],
        "valueQuantity": {
          "value": 0.0,
          "unit": "kg/m2"
        }
      },
      "request": {
        "method": "PUT",
        "url": "http://localhost:8080/cqf-ruler/baseDstu3/Observation/Observation-477922"
      }
    },
    {
      "fullUrl": "http://localhost:8080/cqf-ruler/baseDstu3/Observation/Observation-477923",
      "resource": {
        "resourceType": "Observation",
        "id": "Observation-477923",
        "status": "final",
        "code": {
          "coding": [
            {
              "system": "http://loinc.org",
              "code": "8310-5",
              "display": "Temperature"
            }
          ]
        },
        "subject": {
          "reference": "Patient/Patient-6505",
          "display": "Jamie Davis Baird Jr"
        },
        "context": {
          "reference": "Encounter/Encounter-2223",
          "display": "McKinley Health Center"
        },
        "effectiveDateTime": "2011-03-18T18:00:00-04:00",
        "performer": [
          {
            "reference": "Practitioner/Practitioner-2522",
            "display": "Lois Jean Kent MD"
          }
        ],
        "valueQuantity": {
          "value": 37.0,
          "unit": "C"
        }
      },
      "request": {
        "method": "PUT",
        "url": "http://localhost:8080/cqf-ruler/baseDstu3/Observation/Observation-477923"
      }
    },
    {
      "fullUrl": "http://localhost:8080/cqf-ruler/baseDstu3/Observation/Observation-477924",
      "resource": {
        "resourceType": "Observation",
        "id": "Observation-477924",
        "status": "final",
        "code": {
          "coding": [
            {
              "system": "http://loinc.org",
              "code": "8459-0",
              "display": "Systolic Blood Pressure"
            }
          ]
        },
        "subject": {
          "reference": "Patient/Patient-6505",
          "display": "Jamie Davis Baird Jr"
        },
        "context": {
          "reference": "Encounter/Encounter-2223",
          "display": "McKinley Health Center"
        },
        "effectiveDateTime": "2011-03-18T18:00:00-04:00",
        "performer": [
          {
            "reference": "Practitioner/Practitioner-2522",
            "display": "Lois Jean Kent MD"
          }
        ],
        "valueQuantity": {
          "value": 126.16785456596466,
          "unit": "mmHg"
        }
      },
      "request": {
        "method": "PUT",
        "url": "http://localhost:8080/cqf-ruler/baseDstu3/Observation/Observation-477924"
      }
    },
    {
      "fullUrl": "http://localhost:8080/cqf-ruler/baseDstu3/Observation/Observation-477925",
      "resource": {
        "resourceType": "Observation",
        "id": "Observation-477925",
        "status": "final",
        "code": {
          "coding": [
            {
              "system": "http://loinc.org",
              "code": "8453-3",
              "display": "Diastolic Blood Pressure"
            }
          ]
        },
        "subject": {
          "reference": "Patient/Patient-6505",
          "display": "Jamie Davis Baird Jr"
        },
        "context": {
          "reference": "Encounter/Encounter-2223",
          "display": "McKinley Health Center"
        },
        "effectiveDateTime": "2011-03-18T18:00:00-04:00",
        "performer": [
          {
            "reference": "Practitioner/Practitioner-2522",
            "display": "Lois Jean Kent MD"
          }
        ],
        "valueQuantity": {
          "value": 79.18201308164036,
          "unit": "mmHg"
        }
      },
      "request": {
        "method": "PUT",
        "url": "http://localhost:8080/cqf-ruler/baseDstu3/Observation/Observation-477925"
      }
    },
    {
      "fullUrl": "http://localhost:8080/cqf-ruler/baseDstu3/DiagnosticReport/DiagnosticReport-477919",
      "resource": {
        "resourceType": "DiagnosticReport",
        "id": "DiagnosticReport-477919",
        "status": "final",
        "code": {
          "coding": [
            {
              "system": "http://loinc.org",
              "code": "8716-3",
              "display": "Vital Signs Panel"
            }
          ]
        },
        "subject": {
          "reference": "Patient/Patient-6505",
          "display": "Jamie Davis Baird Jr"
        },
        "context": {
          "reference": "Encounter/Encounter-2223",
          "display": "McKinley Health Center"
        },
        "effectivePeriod": {
          "start": "2011-03-18T18:00:00-04:00",
          "end": "2011-03-18T18:00:00-04:00"
        },
        "issued": "2011-03-18T18:00:00.000-04:00",
        "result": [
          {
            "reference": "Observation/Observation-477920",
            "display": "Height"
          },
          {
            "reference": "Observation/Observation-477921",
            "display": "Weight"
          },
          {
            "reference": "Observation/Observation-477922",
            "display": "BMI"
          },
          {
            "reference": "Observation/Observation-477923",
            "display": "Temperature"
          },
          {
            "reference": "Observation/Observation-477924",
            "display": "Systolic Blood Pressure"
          },
          {
            "reference": "Observation/Observation-477925",
            "display": "Diastolic Blood Pressure"
          }
        ]
      },
      "request": {
        "method": "PUT",
        "url": "http://localhost:8080/cqf-ruler/baseDstu3/DiagnosticReport/DiagnosticReport-477919"
      }
    }
  ]
}