{
  "resourceType": "Bundle",
  "id": "Antonio-Casey-Hayden-6519-Encounter-2784",
  "type": "transaction",
  "entry": [
    {
      "fullUrl": "http://localhost:8080/cqf-ruler/baseDstu3Encounter/Encounter-2784",
      "resource": {
        "resourceType": "Encounter",
        "id": "Encounter-2784",
        "status": "finished",
        "class": {
          "system": "http://hl7.org/fhir/encounter-class",
          "code": "outpatient",
          "display": "Inpatient"
        },
        "subject": {
          "reference": "Patient/Patient-6519",
          "display": "Antonio Casey Hayden"
        },
        "participant": [
          {
            "period": {
              "start": "2016-10-14T06:00:00-04:00",
              "end": "2016-10-14T06:00:00-04:00"
            },
            "individual": {
              "reference": "Practitioner/Practitioner-2516",
              "display": "Agnes Tammy Larson MD"
            }
          }
        ],
        "period": {
          "start": "2016-10-14T06:00:00-04:00",
          "end": "2016-10-14T06:00:00-04:00"
        },
        "location": [
          {
            "location": {
              "reference": "Location/Location-1101",
              "display": "McKinley Health Center"
            }
          }
        ],
        "serviceProvider": {
          "reference": "Organization/Organization-1101",
          "display": "McKinley Health Center"
        }
      },
      "request": {
        "method": "PUT",
        "url": "http://localhost:8080/cqf-ruler/baseDstu3Encounter/Encounter-2784"
      }
    },
    {
      "fullUrl": "http://localhost:8080/cqf-ruler/baseDstu3Immunization/Immunization-595606",
      "resource": {
        "resourceType": "Immunization",
        "id": "Immunization-595606",
        "status": "completed",
        "notGiven": false,
        "vaccineCode": {
          "coding": [
            {
              "system": "http://hl7.org/fhir/sid/cvx",
              "code": "140",
              "display": "Influenza, seasonal, injectable, preservative free"
            }
          ]
        },
        "patient": {
          "reference": "Patient/Patient-6519",
          "display": "Antonio Casey Hayden"
        },
        "date": "2016-10-14T06:00:00-04:00",
        "primarySource": true,
        "location": {
          "reference": "Location/Location-1101",
          "display": "McKinley Health Center"
        },
        "practitioner": [
          {
            "actor": {
              "reference": "Practitioner/Practitioner-2516",
              "display": "Agnes Tammy Larson MD"
            }
          }
        ]
      },
      "request": {
        "method": "PUT",
        "url": "http://localhost:8080/cqf-ruler/baseDstu3Immunization/Immunization-595606"
      }
    },
    {
      "fullUrl": "http://localhost:8080/cqf-ruler/baseDstu3Observation/Observation-621957",
      "resource": {
        "resourceType": "Observation",
        "id": "Observation-621957",
        "status": "final",
        "code": {
          "coding": [
            {
              "system": "http://loinc.org",
              "code": "8302-2",
              "display": "Height"
            }
          ]
        },
        "subject": {
          "reference": "Patient/Patient-6519",
          "display": "Antonio Casey Hayden"
        },
        "context": {
          "reference": "Encounter/Encounter-2784",
          "display": "Wellness Visit"
        },
        "effectiveDateTime": "2016-10-14T06:00:00-04:00",
        "performer": [
          {
            "reference": "Practitioner/Practitioner-2516",
            "display": "Agnes Tammy Larson MD"
          }
        ],
        "valueQuantity": {
          "value": 108.7,
          "unit": "cm"
        }
      },
      "request": {
        "method": "PUT",
        "url": "http://localhost:8080/cqf-ruler/baseDstu3Observation/Observation-621957"
      }
    },
    {
      "fullUrl": "http://localhost:8080/cqf-ruler/baseDstu3Observation/Observation-621958",
      "resource": {
        "resourceType": "Observation",
        "id": "Observation-621958",
        "status": "final",
        "code": {
          "coding": [
            {
              "system": "http://loinc.org",
              "code": "29463-7",
              "display": "Weight"
            }
          ]
        },
        "subject": {
          "reference": "Patient/Patient-6519",
          "display": "Antonio Casey Hayden"
        },
        "context": {
          "reference": "Encounter/Encounter-2784",
          "display": "Wellness Visit"
        },
        "effectiveDateTime": "2016-10-14T06:00:00-04:00",
        "performer": [
          {
            "reference": "Practitioner/Practitioner-2516",
            "display": "Agnes Tammy Larson MD"
          }
        ],
        "valueQuantity": {
          "value": 0.0,
          "unit": "kg"
        }
      },
      "request": {
        "method": "PUT",
        "url": "http://localhost:8080/cqf-ruler/baseDstu3Observation/Observation-621958"
      }
    },
    {
      "fullUrl": "http://localhost:8080/cqf-ruler/baseDstu3Observation/Observation-621959",
      "resource": {
        "resourceType": "Observation",
        "id": "Observation-621959",
        "status": "final",
        "code": {
          "coding": [
            {
              "system": "http://loinc.org",
              "code": "39156-5",
              "display": "BMI"
            }
          ]
        },
        "subject": {
          "reference": "Patient/Patient-6519",
          "display": "Antonio Casey Hayden"
        },
        "context": {
          "reference": "Encounter/Encounter-2784",
          "display": "Wellness Visit"
        },
        "effectiveDateTime": "2016-10-14T06:00:00-04:00",
        "performer": [
          {
            "reference": "Practitioner/Practitioner-2516",
            "display": "Agnes Tammy Larson MD"
          }
        ],
        "valueQuantity": {
          "value": 0.0,
          "unit": "kg/m2"
        }
      },
      "request": {
        "method": "PUT",
        "url": "http://localhost:8080/cqf-ruler/baseDstu3Observation/Observation-621959"
      }
    },
    {
      "fullUrl": "http://localhost:8080/cqf-ruler/baseDstu3Observation/Observation-621960",
      "resource": {
        "resourceType": "Observation",
        "id": "Observation-621960",
        "status": "final",
        "code": {
          "coding": [
            {
              "system": "http://loinc.org",
              "code": "8310-5",
              "display": "Temperature"
            }
          ]
        },
        "subject": {
          "reference": "Patient/Patient-6519",
          "display": "Antonio Casey Hayden"
        },
        "context": {
          "reference": "Encounter/Encounter-2784",
          "display": "Wellness Visit"
        },
        "effectiveDateTime": "2016-10-14T06:00:00-04:00",
        "performer": [
          {
            "reference": "Practitioner/Practitioner-2516",
            "display": "Agnes Tammy Larson MD"
          }
        ],
        "valueQuantity": {
          "value": 37.0,
          "unit": "C"
        }
      },
      "request": {
        "method": "PUT",
        "url": "http://localhost:8080/cqf-ruler/baseDstu3Observation/Observation-621960"
      }
    },
    {
      "fullUrl": "http://localhost:8080/cqf-ruler/baseDstu3Observation/Observation-621961",
      "resource": {
        "resourceType": "Observation",
        "id": "Observation-621961",
        "status": "final",
        "code": {
          "coding": [
            {
              "system": "http://loinc.org",
              "code": "8459-0",
              "display": "Systolic Blood Pressure"
            }
          ]
        },
        "subject": {
          "reference": "Patient/Patient-6519",
          "display": "Antonio Casey Hayden"
        },
        "context": {
          "reference": "Encounter/Encounter-2784",
          "display": "Wellness Visit"
        },
        "effectiveDateTime": "2016-10-14T06:00:00-04:00",
        "performer": [
          {
            "reference": "Practitioner/Practitioner-2516",
            "display": "Agnes Tammy Larson MD"
          }
        ],
        "valueQuantity": {
          "value": 133.9609943052333,
          "unit": "mmHg"
        }
      },
      "request": {
        "method": "PUT",
        "url": "http://localhost:8080/cqf-ruler/baseDstu3Observation/Observation-621961"
      }
    },
    {
      "fullUrl": "http://localhost:8080/cqf-ruler/baseDstu3Observation/Observation-621962",
      "resource": {
        "resourceType": "Observation",
        "id": "Observation-621962",
        "status": "final",
        "code": {
          "coding": [
            {
              "system": "http://loinc.org",
              "code": "8453-3",
              "display": "Diastolic Blood Pressure"
            }
          ]
        },
        "subject": {
          "reference": "Patient/Patient-6519",
          "display": "Antonio Casey Hayden"
        },
        "context": {
          "reference": "Encounter/Encounter-2784",
          "display": "Wellness Visit"
        },
        "effectiveDateTime": "2016-10-14T06:00:00-04:00",
        "performer": [
          {
            "reference": "Practitioner/Practitioner-2516",
            "display": "Agnes Tammy Larson MD"
          }
        ],
        "valueQuantity": {
          "value": 86.01363707953477,
          "unit": "mmHg"
        }
      },
      "request": {
        "method": "PUT",
        "url": "http://localhost:8080/cqf-ruler/baseDstu3Observation/Observation-621962"
      }
    },
    {
      "fullUrl": "http://localhost:8080/cqf-ruler/baseDstu3DiagnosticReport/DiagnosticReport-621956",
      "resource": {
        "resourceType": "DiagnosticReport",
        "id": "DiagnosticReport-621956",
        "status": "final",
        "code": {
          "coding": [
            {
              "system": "http://loinc.org",
              "code": "8716-3",
              "display": "Vital Signs Panel"
            }
          ]
        },
        "subject": {
          "reference": "Patient/Patient-6519",
          "display": "Antonio Casey Hayden"
        },
        "context": {
          "reference": "Encounter/Encounter-2784",
          "display": "Wellness Visit"
        },
        "effectivePeriod": {
          "start": "2016-10-14T06:00:00-04:00",
          "end": "2016-10-14T06:00:00-04:00"
        },
        "issued": "2016-10-14T06:00:00.000-04:00",
        "result": [
          {
            "reference": "Observation/Observation-621957",
            "display": "Height"
          },
          {
            "reference": "Observation/Observation-621958",
            "display": "Weight"
          },
          {
            "reference": "Observation/Observation-621959",
            "display": "BMI"
          },
          {
            "reference": "Observation/Observation-621960",
            "display": "Temperature"
          },
          {
            "reference": "Observation/Observation-621961",
            "display": "Systolic Blood Pressure"
          },
          {
            "reference": "Observation/Observation-621962",
            "display": "Diastolic Blood Pressure"
          }
        ]
      },
      "request": {
        "method": "PUT",
        "url": "http://localhost:8080/cqf-ruler/baseDstu3DiagnosticReport/DiagnosticReport-621956"
      }
    }
  ]
}