{
  "resourceType": "Bundle",
  "id": "38208129-2ec2-4764-a423-88e672a94503",
  "type": "transaction",
  "entry": [
    {
      "fullUrl": "http://localhost:8080/cqf-ruler/baseDstu3/Encounter/Encounter-876",
      "resource": {
        "resourceType": "Encounter",
        "id": "Encounter-876",
        "status": "finished",
        "class": {
          "system": "http://hl7.org/fhir/encounter-class",
          "code": "other",
          "display": "Other"
        },
        "subject": {
          "reference": "Patient/Patient-6540",
          "display": "Helen Marjorie Medina"
        },
        "participant": [
          {
            "period": {
              "start": "2026-01-23T14:38:20-08:00",
              "end": "2026-01-23T14:38:20-08:00"
            },
            "individual": {
              "reference": "Practitioner/Practitioner-2517",
              "display": "Cathy Shannon Warner MD"
            }
          }
        ],
        "period": {
          "start": "2026-01-23T14:38:20-08:00",
          "end": "2026-01-23T14:38:20-08:00"
        },
        "location": [
          {
            "location": {
              "reference": "Location/Location-1102",
              "display": "Pediatric and Adult Medicine"
            }
          }
        ],
        "serviceProvider": {
          "reference": "Organization/Organization-1102",
          "display": "Pediatric and Adult Medicine"
        }
      },
      "request": {
        "method": "PUT",
        "url": "http://localhost:8080/cqf-ruler/baseDstu3/Encounter/Encounter-876"
      }
    },
    {
      "fullUrl": "http://localhost:8080/cqf-ruler/baseDstu3/Immunization/Immunization-166282",
      "resource": {
        "resourceType": "Immunization",
        "id": "Immunization-166282",
        "status": "completed",
        "notGiven": false,
        "vaccineCode": {
          "coding": [
            {
              "system": "http://hl7.org/fhir/sid/cvx",
              "code": "140",
              "display": "Influenza, seasonal, injectable, preservative free"
            }
          ]
        },
        "patient": {
          "reference": "Patient/Patient-6540",
          "display": "Helen Marjorie Medina"
        },
        "date": "2026-01-18T14:38:20-08:00",
        "primarySource": true,
        "location": {
          "reference": "Location/Location-1102",
          "display": "Pediatric and Adult Medicine"
        },
        "practitioner": [
          {
            "actor": {
              "reference": "Practitioner/Practitioner-2517",
              "display": "Cathy Shannon Warner MD"
            }
          }
        ]
      },
      "request": {
        "method": "PUT",
        "url": "http://localhost:8080/cqf-ruler/baseDstu3/Immunization/Immunization-166282"
      }
    },
    {
      "fullUrl": "http://localhost:8080/cqf-ruler/baseDstu3/Observation/Observation-219065",
      "resource": {
        "resourceType": "Observation",
        "id": "Observation-219065",
        "status": "final",
        "code": {
          "coding": [
            {
              "system": "http://loinc.org",
              "code": "8480-6",
              "display": "Systolic blood pressure"
            }
          ]
        },
        "subject": {
          "reference": "Patient/Patient-6540",
          "display": "Helen Marjorie Medina"
        },
        "context": {
          "reference": "Encounter/Encounter-876",
          "display": "Pediatric and Adult Medicine"
        },
        "effectiveDateTime": "2026-01-23T14:38:20-08:00",
        "performer": [
          {
            "reference": "Practitioner/Practitioner-2517",
            "display": "Cathy Shannon Warner MD"
          }
        ],
        "valueQuantity": {
          "value": 140.42763948895578,
          "unit": "mmHg"
        }
      },
      "request": {
        "method": "PUT",
        "url": "http://localhost:8080/cqf-ruler/baseDstu3/Observation/Observation-219065"
      }
    },
    {
      "fullUrl": "http://localhost:8080/cqf-ruler/baseDstu3/Observation/Observation-219066",
      "resource": {
        "resourceType": "Observation",
        "id": "Observation-219066",
        "status": "final",
        "code": {
          "coding": [
            {
              "system": "http://loinc.org",
              "code": "8462-4",
              "display": "Diastolic blood pressure"
            }
          ]
        },
        "subject": {
          "reference": "Patient/Patient-6540",
          "display": "Helen Marjorie Medina"
        },
        "context": {
          "reference": "Encounter/Encounter-876",
          "display": "Pediatric and Adult Medicine"
        },
        "effectiveDateTime": "2026-01-23T14:38:20-08:00",
        "performer": [
          {
            "reference": "Practitioner/Practitioner-2517",
            "display": "Cathy Shannon Warner MD"
          }
        ],
        "valueQuantity": {
          "value": 106.26044871318183,
          "unit": "mmHg"
        }
      },
      "request": {
        "method": "PUT",
        "url": "http://localhost:8080/cqf-ruler/baseDstu3/Observation/Observation-219066"
      }
    },
    {
      "fullUrl": "http://localhost:8080/cqf-ruler/baseDstu3/Condition/Condition-219067",
      "resource": {
        "resourceType": "Condition",
        "id": "Condition-219067",
        "clinicalStatus": "active",
        "verificationStatus": "confirmed",
        "code": {
          "coding": [
            {
              "system": "http://snomed.info/sct",
              "code": "65518004",
              "display": "Labile diastolic hypertension"
            }
          ]
        },
        "subject": {
          "reference": "Patient/Patient-6540",
          "display": "Helen Marjorie Medina"
        },
        "context": {
          "reference": "Encounter/Encounter-876",
          "display": "Pediatric and Adult Medicine"
        },
        "onsetDateTime": "2026-01-23T14:38:20-08:00",
        "assertedDate": "2026-01-23T14:38:20-08:00",
        "asserter": {
          "reference": "Practitioner/Practitioner-2517",
          "display": "Cathy Shannon Warner MD"
        }
      },
      "request": {
        "method": "PUT",
        "url": "http://localhost:8080/cqf-ruler/baseDstu3/Condition/Condition-219067"
      }
    },
    {
      "fullUrl": "http://localhost:8080/cqf-ruler/baseDstu3/Procedure/Procedure-219068",
      "resource": {
        "resourceType": "Procedure",
        "id": "Procedure-219068",
        "status": "completed",
        "code": {
          "coding": [
            {
              "system": "http://snomed.info/sct",
              "code": "43204002",
              "display": "Bilateral mammography (procedure)"
            }
          ]
        },
        "subject": {
          "reference": "Patient/Patient-6540",
          "display": "Helen Marjorie Medina"
        },
        "context": {
          "reference": "Encounter/Encounter-876",
          "display": "Pediatric and Adult Medicine"
        },
        "performedPeriod": {
          "start": "2026-01-23T14:38:20-08:00",
          "end": "2026-01-23T14:38:20-08:00"
        },
        "performer": [
          {
            "actor": {
              "reference": "Practitioner/Practitioner-2517",
              "display": "Cathy Shannon Warner MD"
            }
          }
        ],
        "location": {
          "reference": "Location/Location-1102",
          "display": "Pediatric and Adult Medicine"
        }
      },
      "request": {
        "method": "PUT",
        "url": "http://localhost:8080/cqf-ruler/baseDstu3/Procedure/Procedure-219068"
      }
    },
    {
      "fullUrl": "http://localhost:8080/cqf-ruler/baseDstu3/Observation/Observation-219069",
      "resource": {
        "resourceType": "Observation",
        "id": "Observation-219069",
        "status": "final",
        "code": {
          "coding": [
            {
              "system": "http://snomed.info/sct",
              "code": "168749009",
              "display": "Mammography normal (finding)"
            }
          ]
        },
        "subject": {
          "reference": "Patient/Patient-6540",
          "display": "Helen Marjorie Medina"
        },
        "context": {
          "reference": "Encounter/Encounter-876",
          "display": "Pediatric and Adult Medicine"
        },
        "effectiveDateTime": "2026-01-23T14:38:20-08:00",
        "performer": [
          {
            "reference": "Practitioner/Practitioner-2517",
            "display": "Cathy Shannon Warner MD"
          }
        ],
        "valueString": "NEGATIVE"
      },
      "request": {
        "method": "PUT",
        "url": "http://localhost:8080/cqf-ruler/baseDstu3/Observation/Observation-219069"
      }
    },
    {
      "fullUrl": "http://localhost:8080/cqf-ruler/baseDstu3/DiagnosticReport/DiagnosticReport-219070",
      "resource": {
        "resourceType": "DiagnosticReport",
        "id": "DiagnosticReport-219070",
        "status": "final",
        "code": {
          "coding": [
            {
              "system": "http://loinc.org",
              "code": "38071-7",
              "display": "Breast implant - bilateral Mammogram"
            }
          ]
        },
        "subject": {
          "reference": "Patient/Patient-6540",
          "display": "Helen Marjorie Medina"
        },
        "context": {
          "reference": "Encounter/Encounter-876",
          "display": "Pediatric and Adult Medicine"
        },
        "effectivePeriod": {
          "start": "2026-01-23T14:38:20-08:00",
          "end": "2026-01-23T14:38:20-08:00"
        },
        "issued": "2017-08-31T14:38:20-07:00",
        "result": [
          {
            "reference": "Observation/Observation-219069",
            "display": "No_Cancer_Detected"
          }
        ]
      },
      "request": {
        "method": "PUT",
        "url": "http://localhost:8080/cqf-ruler/baseDstu3/DiagnosticReport/DiagnosticReport-219070"
      }
    },
    {
      "fullUrl": "http://localhost:8080/cqf-ruler/baseDstu3/Procedure/Procedure-219071",
      "resource": {
        "resourceType": "Procedure",
        "id": "Procedure-219071",
        "status": "completed",
        "code": {
          "coding": [
            {
              "system": "http://loinc.org",
              "code": "47527-7",
              "display": "Cytology report of Cervical or vaginal smear or scraping Cyto stain.thin prep"
            }
          ]
        },
        "subject": {
          "reference": "Patient/Patient-6540",
          "display": "Helen Marjorie Medina"
        },
        "context": {
          "reference": "Encounter/Encounter-876",
          "display": "Pediatric and Adult Medicine"
        },
        "performedPeriod": {
          "start": "2026-01-23T14:38:20-08:00",
          "end": "2026-01-23T14:38:20-08:00"
        },
        "performer": [
          {
            "actor": {
              "reference": "Practitioner/Practitioner-2517",
              "display": "Cathy Shannon Warner MD"
            }
          }
        ],
        "location": {
          "reference": "Location/Location-1102",
          "display": "Pediatric and Adult Medicine"
        }
      },
      "request": {
        "method": "PUT",
        "url": "http://localhost:8080/cqf-ruler/baseDstu3/Procedure/Procedure-219071"
      }
    },
    {
      "fullUrl": "http://localhost:8080/cqf-ruler/baseDstu3/Observation/Observation-219072",
      "resource": {
        "resourceType": "Observation",
        "id": "Observation-219072",
        "status": "final",
        "code": {
          "coding": [
            {
              "system": "http://snomed.info/sct",
              "code": "289829007",
              "display": "Normal uterine cervix (finding)"
            }
          ]
        },
        "subject": {
          "reference": "Patient/Patient-6540",
          "display": "Helen Marjorie Medina"
        },
        "context": {
          "reference": "Encounter/Encounter-876",
          "display": "Pediatric and Adult Medicine"
        },
        "effectiveDateTime": "2026-01-23T14:38:20-08:00",
        "performer": [
          {
            "reference": "Practitioner/Practitioner-2517",
            "display": "Cathy Shannon Warner MD"
          }
        ],
        "valueString": "NEGATIVE"
      },
      "request": {
        "method": "PUT",
        "url": "http://localhost:8080/cqf-ruler/baseDstu3/Observation/Observation-219072"
      }
    },
    {
      "fullUrl": "http://localhost:8080/cqf-ruler/baseDstu3/DiagnosticReport/DiagnosticReport-219073",
      "resource": {
        "resourceType": "DiagnosticReport",
        "id": "DiagnosticReport-219073",
        "status": "final",
        "code": {
          "coding": [
            {
              "system": "http://loinc.org",
              "code": "26348-3",
              "display": "Breast - right Mammogram diagnostic"
            }
          ]
        },
        "subject": {
          "reference": "Patient/Patient-6540",
          "display": "Helen Marjorie Medina"
        },
        "context": {
          "reference": "Encounter/Encounter-876",
          "display": "Pediatric and Adult Medicine"
        },
        "effectivePeriod": {
          "start": "2026-01-23T14:38:20-08:00",
          "end": "2026-01-23T14:38:20-08:00"
        },
        "issued": "2017-08-31T14:38:20-07:00",
        "result": [
          {
            "reference": "Observation/Observation-219072",
            "display": "No_Cancer_Detected"
          }
        ]
      },
      "request": {
        "method": "PUT",
        "url": "http://localhost:8080/cqf-ruler/baseDstu3/DiagnosticReport/DiagnosticReport-219073"
      }
    },
    {
      "fullUrl": "http://localhost:8080/cqf-ruler/baseDstu3/Observation/Observation-219074",
      "resource": {
        "resourceType": "Observation",
        "id": "Observation-219074",
        "status": "final",
        "category": [
          {
            "coding": [
              {
                "system": "http://hl7.org/fhir/observation-category",
                "code": "vital-signs",
                "display": "vital-signs"
              }
            ]
          }
        ],
        "code": {
          "coding": [
            {
              "system": "http://loinc.org",
              "code": "8716-3",
              "display": "Vital Signs Panel"
            }
          ]
        },
        "subject": {
          "reference": "Patient/Patient-6540",
          "display": "Helen Marjorie Medina"
        },
        "context": {
          "reference": "Encounter/Encounter-876",
          "display": "Pediatric and Adult Medicine"
        },
        "effectivePeriod": {
          "start": "2026-01-23T14:38:20-08:00",
          "end": "2026-01-23T14:38:20-08:00"
        },
        "valueQuantity": {
          "value": 106.26044871318183,
          "unit": "mmHg"
        },
        "component": [
          {
            "code": {
              "coding": [
                {
                  "system": "http://loinc.org",
                  "code": "8302-2",
                  "display": "Height"
                }
              ]
            }
          },
          {
            "code": {
              "coding": [
                {
                  "system": "http://loinc.org",
                  "code": "29463-7",
                  "display": "Weight"
                }
              ]
            }
          },
          {
            "code": {
              "coding": [
                {
                  "system": "http://loinc.org",
                  "code": "39156-5",
                  "display": "BMI"
                }
              ]
            }
          },
          {
            "code": {
              "coding": [
                {
                  "system": "http://loinc.org",
                  "code": "8310-5",
                  "display": "Temperature"
                }
              ]
            }
          },
          {
            "code": {
              "coding": [
                {
                  "system": "http://loinc.org",
                  "code": "8459-0",
                  "display": "Systolic Blood Pressure"
                }
              ]
            }
          },
          {
            "code": {
              "coding": [
                {
                  "system": "http://loinc.org",
                  "code": "8453-3",
                  "display": "Diastolic Blood Pressure"
                }
              ]
            }
          }
        ]
      },
      "request": {
        "method": "PUT",
        "url": "http://localhost:8080/cqf-ruler/baseDstu3/Observation/Observation-219074"
      }
    }
  ]
}