{
  "resourceType": "Bundle",
  "id": "Helen-Marjorie-Medina-6540-Encounter-1793",
  "type": "transaction",
  "entry": [
    {
      "fullUrl": "http://localhost:8080/cqf-ruler/baseDstu3/Encounter/Encounter-1793",
      "resource": {
        "resourceType": "Encounter",
        "id": "Encounter-1793",
        "meta": {
          "profile": [
            "http://hl7.org/fhir/us/hedis/StructureDefinition/hedis-encounter"
          ]
        },
        "status": "finished",
        "class": {
          "system": "http://hl7.org/fhir/encounter-class",
          "code": "ambulatory",
          "display": "Ambulatory"
        },
        "subject": {
          "reference": "Patient/Patient-6540",
          "display": "Helen Marjorie Medina"
        },
        "participant": [
          {
            "period": {
              "start": "2003-12-12T00:00:00-05:00",
              "end": "2003-12-12T00:00:00-05:00"
            },
            "individual": {
              "reference": "Practitioner/Practitioner-2535",
              "display": "Clifton Terrence Carey MD"
            }
          }
        ],
        "period": {
          "start": "2003-12-12T00:00:00-05:00",
          "end": "2003-12-12T00:00:00-05:00"
        },
        "location": [
          {
            "location": {
              "reference": "Location/Location-1001",
              "display": "Windward General Hospital"
            }
          }
        ],
        "serviceProvider": {
          "reference": "Organization/Organization-1001",
          "display": "Windward General Hospital"
        }
      },
      "request": {
        "method": "PUT",
        "url": "http://localhost:8080/cqf-ruler/baseDstu3/Encounter/Encounter-1793"
      }
    },
    {
      "fullUrl": "http://localhost:8080/cqf-ruler/baseDstu3/Procedure/Procedure-334918",
      "resource": {
        "resourceType": "Procedure",
        "id": "Procedure-334918",
        "meta": {
          "profile": [
            "http://hl7.org/fhir/us/hedis/StructureDefinition/hedis-procedure"
          ]
        },
        "status": "completed",
        "code": {
          "coding": [
            {
              "system": "TEST",
              "code": "2.16.840.1.113883.3.67.1.101.11.723",
              "display": "PHQ-9 Tool"
            }
          ]
        },
        "subject": {
          "reference": "Patient/Patient-6540",
          "display": "Helen Marjorie Medina"
        },
        "context": {
          "reference": "Encounter/Encounter-1793",
          "display": "Followup_Encounter"
        },
        "performedPeriod": {
          "start": "2003-12-12T00:00:00-05:00",
          "end": "2003-12-12T00:00:00-05:00"
        },
        "performer": [
          {
            "actor": {
              "reference": "Practitioner/Practitioner-2535",
              "display": "Clifton Terrence Carey MD"
            }
          }
        ],
        "location": {
          "reference": "Location/Location-1001",
          "display": "Windward General Hospital"
        }
      },
      "request": {
        "method": "PUT",
        "url": "http://localhost:8080/cqf-ruler/baseDstu3/Procedure/Procedure-334918"
      }
    },
    {
      "fullUrl": "http://localhost:8080/cqf-ruler/baseDstu3/Observation/Observation-334919",
      "resource": {
        "resourceType": "Observation",
        "id": "Observation-334919",
        "meta": {
          "profile": [
            "http://hl7.org/fhir/us/hedis/StructureDefinition/hedis-observation"
          ]
        },
        "status": "final",
        "code": {
          "coding": [
            {
              "system": "TEST",
              "code": "2.16.840.1.113883.3.464.1003.105.12.1154",
              "display": "PHQ-9 Modified Score"
            }
          ]
        },
        "subject": {
          "reference": "Patient/Patient-6540",
          "display": "Helen Marjorie Medina"
        },
        "context": {
          "reference": "Encounter/Encounter-1793",
          "display": "Followup_Encounter"
        },
        "effectiveDateTime": "2003-12-12T00:00:00-05:00",
        "performer": [
          {
            "reference": "Practitioner/Practitioner-2535",
            "display": "Clifton Terrence Carey MD"
          }
        ],
        "valueQuantity": {
          "value": 9.0,
          "unit": "score"
        }
      },
      "request": {
        "method": "PUT",
        "url": "http://localhost:8080/cqf-ruler/baseDstu3/Observation/Observation-334919"
      }
    },
    {
      "fullUrl": "http://localhost:8080/cqf-ruler/baseDstu3/Observation/Observation-334922",
      "resource": {
        "resourceType": "Observation",
        "id": "Observation-334922",
        "status": "final",
        "code": {
          "coding": [
            {
              "system": "http://loinc.org",
              "code": "8302-2",
              "display": "Height"
            }
          ]
        },
        "subject": {
          "reference": "Patient/Patient-6540",
          "display": "Helen Marjorie Medina"
        },
        "context": {
          "reference": "Encounter/Encounter-1793",
          "display": "Followup_Encounter"
        },
        "effectiveDateTime": "2003-12-12T00:00:00-05:00",
        "performer": [
          {
            "reference": "Practitioner/Practitioner-2535",
            "display": "Clifton Terrence Carey MD"
          }
        ],
        "valueQuantity": {
          "value": 163.3,
          "unit": "cm"
        }
      },
      "request": {
        "method": "PUT",
        "url": "http://localhost:8080/cqf-ruler/baseDstu3/Observation/Observation-334922"
      }
    },
    {
      "fullUrl": "http://localhost:8080/cqf-ruler/baseDstu3/Observation/Observation-334923",
      "resource": {
        "resourceType": "Observation",
        "id": "Observation-334923",
        "status": "final",
        "code": {
          "coding": [
            {
              "system": "http://loinc.org",
              "code": "29463-7",
              "display": "Weight"
            }
          ]
        },
        "subject": {
          "reference": "Patient/Patient-6540",
          "display": "Helen Marjorie Medina"
        },
        "context": {
          "reference": "Encounter/Encounter-1793",
          "display": "Followup_Encounter"
        },
        "effectiveDateTime": "2003-12-12T00:00:00-05:00",
        "performer": [
          {
            "reference": "Practitioner/Practitioner-2535",
            "display": "Clifton Terrence Carey MD"
          }
        ],
        "valueQuantity": {
          "value": 65.83793589468756,
          "unit": "kg"
        }
      },
      "request": {
        "method": "PUT",
        "url": "http://localhost:8080/cqf-ruler/baseDstu3/Observation/Observation-334923"
      }
    },
    {
      "fullUrl": "http://localhost:8080/cqf-ruler/baseDstu3/Observation/Observation-334924",
      "resource": {
        "resourceType": "Observation",
        "id": "Observation-334924",
        "status": "final",
        "code": {
          "coding": [
            {
              "system": "http://loinc.org",
              "code": "39156-5",
              "display": "BMI"
            }
          ]
        },
        "subject": {
          "reference": "Patient/Patient-6540",
          "display": "Helen Marjorie Medina"
        },
        "context": {
          "reference": "Encounter/Encounter-1793",
          "display": "Followup_Encounter"
        },
        "effectiveDateTime": "2003-12-12T00:00:00-05:00",
        "performer": [
          {
            "reference": "Practitioner/Practitioner-2535",
            "display": "Clifton Terrence Carey MD"
          }
        ],
        "valueQuantity": {
          "value": 24.68901918997212,
          "unit": "kg/m2"
        }
      },
      "request": {
        "method": "PUT",
        "url": "http://localhost:8080/cqf-ruler/baseDstu3/Observation/Observation-334924"
      }
    },
    {
      "fullUrl": "http://localhost:8080/cqf-ruler/baseDstu3/Observation/Observation-334925",
      "resource": {
        "resourceType": "Observation",
        "id": "Observation-334925",
        "status": "final",
        "code": {
          "coding": [
            {
              "system": "http://loinc.org",
              "code": "8310-5",
              "display": "Temperature"
            }
          ]
        },
        "subject": {
          "reference": "Patient/Patient-6540",
          "display": "Helen Marjorie Medina"
        },
        "context": {
          "reference": "Encounter/Encounter-1793",
          "display": "Followup_Encounter"
        },
        "effectiveDateTime": "2003-12-12T00:00:00-05:00",
        "performer": [
          {
            "reference": "Practitioner/Practitioner-2535",
            "display": "Clifton Terrence Carey MD"
          }
        ],
        "valueQuantity": {
          "value": 37.0,
          "unit": "C"
        }
      },
      "request": {
        "method": "PUT",
        "url": "http://localhost:8080/cqf-ruler/baseDstu3/Observation/Observation-334925"
      }
    },
    {
      "fullUrl": "http://localhost:8080/cqf-ruler/baseDstu3/Observation/Observation-334926",
      "resource": {
        "resourceType": "Observation",
        "id": "Observation-334926",
        "status": "final",
        "code": {
          "coding": [
            {
              "system": "http://loinc.org",
              "code": "8459-0",
              "display": "Systolic Blood Pressure"
            }
          ]
        },
        "subject": {
          "reference": "Patient/Patient-6540",
          "display": "Helen Marjorie Medina"
        },
        "context": {
          "reference": "Encounter/Encounter-1793",
          "display": "Followup_Encounter"
        },
        "effectiveDateTime": "2003-12-12T00:00:00-05:00",
        "performer": [
          {
            "reference": "Practitioner/Practitioner-2535",
            "display": "Clifton Terrence Carey MD"
          }
        ],
        "valueQuantity": {
          "value": 171.50440408386635,
          "unit": "mmHg"
        }
      },
      "request": {
        "method": "PUT",
        "url": "http://localhost:8080/cqf-ruler/baseDstu3/Observation/Observation-334926"
      }
    },
    {
      "fullUrl": "http://localhost:8080/cqf-ruler/baseDstu3/Observation/Observation-334927",
      "resource": {
        "resourceType": "Observation",
        "id": "Observation-334927",
        "status": "final",
        "code": {
          "coding": [
            {
              "system": "http://loinc.org",
              "code": "8453-3",
              "display": "Diastolic Blood Pressure"
            }
          ]
        },
        "subject": {
          "reference": "Patient/Patient-6540",
          "display": "Helen Marjorie Medina"
        },
        "context": {
          "reference": "Encounter/Encounter-1793",
          "display": "Followup_Encounter"
        },
        "effectiveDateTime": "2003-12-12T00:00:00-05:00",
        "performer": [
          {
            "reference": "Practitioner/Practitioner-2535",
            "display": "Clifton Terrence Carey MD"
          }
        ],
        "valueQuantity": {
          "value": 75.64191827768865,
          "unit": "mmHg"
        }
      },
      "request": {
        "method": "PUT",
        "url": "http://localhost:8080/cqf-ruler/baseDstu3/Observation/Observation-334927"
      }
    },
    {
      "fullUrl": "http://localhost:8080/cqf-ruler/baseDstu3/DiagnosticReport/DiagnosticReport-334921",
      "resource": {
        "resourceType": "DiagnosticReport",
        "id": "DiagnosticReport-334921",
        "meta": {
          "profile": [
            "http://hl7.org/fhir/us/hedis/StructureDefinition/hedis-diagnosticreport"
          ]
        },
        "status": "final",
        "category": {
          "coding": [
            {
              "system": "http://hl7.org/fhir/ValueSet/diagnostic-service-sections",
              "code": "LAB",
              "display": "Laboratory"
            }
          ]
        },
        "code": {
          "coding": [
            {
              "system": "http://loinc.org",
              "code": "8716-3",
              "display": "Vital Signs Panel"
            }
          ]
        },
        "subject": {
          "reference": "Patient/Patient-6540",
          "display": "Helen Marjorie Medina"
        },
        "context": {
          "reference": "Encounter/Encounter-1793",
          "display": "Followup_Encounter"
        },
        "effectivePeriod": {
          "start": "2003-12-12T00:00:00-05:00",
          "end": "2003-12-12T00:00:00-05:00"
        },
        "issued": "2003-12-12T00:00:00.000-05:00",
        "result": [
          {
            "reference": "Observation/Observation-334922",
            "display": "Height"
          },
          {
            "reference": "Observation/Observation-334923",
            "display": "Weight"
          },
          {
            "reference": "Observation/Observation-334924",
            "display": "BMI"
          },
          {
            "reference": "Observation/Observation-334925",
            "display": "Temperature"
          },
          {
            "reference": "Observation/Observation-334926",
            "display": "Systolic Blood Pressure"
          },
          {
            "reference": "Observation/Observation-334927",
            "display": "Diastolic Blood Pressure"
          }
        ]
      },
      "request": {
        "method": "PUT",
        "url": "http://localhost:8080/cqf-ruler/baseDstu3/DiagnosticReport/DiagnosticReport-334921"
      }
    }
  ]
}