{
  "resourceType": "Bundle",
  "id": "Ryan-Arthur-Paulson-1125-Encounter-256",
  "type": "transaction",
  "entry": [
    {
      "fullUrl": "http://localhost:8080/cqf-ruler/baseDstu3/Encounter/Encounter-256",
      "resource": {
        "resourceType": "Encounter",
        "id": "Encounter-256",
        "meta": {
          "profile": [
            "http://hl7.org/fhir/us/hedis/StructureDefinition/hedis-encounter"
          ]
        },
        "status": "finished",
        "class": {
          "system": "http://hl7.org/fhir/encounter-class",
          "code": "outpatient",
          "display": "Outpatient"
        },
        "type": [
          {
            "coding": [
              {
                "system": "http://snomed.info/sct",
                "code": "170258001",
                "display": "Wellness Visit"
              }
            ]
          }
        ],
        "subject": {
          "reference": "Patient/Patient-1125",
          "display": "Ryan Arthur Paulson"
        },
        "participant": [
          {
            "period": {
              "start": "1989-03-17T00:00:00-05:00",
              "end": "1989-03-17T00:00:00-05:00"
            },
            "individual": {
              "reference": "Practitioner/Practitioner-2521",
              "display": "Heather Fuentes Guerra MD"
            }
          }
        ],
        "period": {
          "start": "1989-03-17T00:00:00-05:00",
          "end": "1989-03-17T00:00:00-05:00"
        },
        "location": [
          {
            "location": {
              "reference": "Location/Location-1106",
              "display": "Cranston Family Medical"
            }
          }
        ],
        "serviceProvider": {
          "reference": "Organization/Organization-1106",
          "display": "Cranston Family Medical"
        }
      },
      "request": {
        "method": "PUT",
        "url": "http://localhost:8080/cqf-ruler/baseDstu3/Encounter/Encounter-256"
      }
    },
    {
      "fullUrl": "http://localhost:8080/cqf-ruler/baseDstu3/Immunization/Immunization-4332",
      "resource": {
        "resourceType": "Immunization",
        "id": "Immunization-4332",
        "status": "completed",
        "notGiven": false,
        "vaccineCode": {
          "coding": [
            {
              "system": "http://hl7.org/fhir/sid/cvx",
              "code": "140",
              "display": "Influenza, seasonal, injectable, preservative free"
            }
          ]
        },
        "patient": {
          "reference": "Patient/Patient-1125",
          "display": "Ryan Arthur Paulson"
        },
        "date": "1989-03-17T00:00:00-05:00",
        "primarySource": true,
        "location": {
          "reference": "Location/Location-1106",
          "display": "Cranston Family Medical"
        },
        "practitioner": [
          {
            "actor": {
              "reference": "Practitioner/Practitioner-2521",
              "display": "Heather Fuentes Guerra MD"
            }
          }
        ]
      },
      "request": {
        "method": "PUT",
        "url": "http://localhost:8080/cqf-ruler/baseDstu3/Immunization/Immunization-4332"
      }
    },
    {
      "fullUrl": "http://localhost:8080/cqf-ruler/baseDstu3/Observation/Observation-22458",
      "resource": {
        "resourceType": "Observation",
        "id": "Observation-22458",
        "meta": {
          "profile": [
            "http://hl7.org/fhir/us/hedis/StructureDefinition/hedis-observation"
          ]
        },
        "status": "final",
        "code": {
          "coding": [
            {
              "system": "http://loinc.org",
              "code": "8480-6",
              "display": "Systolic blood pressure"
            }
          ]
        },
        "subject": {
          "reference": "Patient/Patient-1125",
          "display": "Ryan Arthur Paulson"
        },
        "context": {
          "reference": "Encounter/Encounter-256",
          "display": "Wellness Visit"
        },
        "effectiveDateTime": "1989-03-17T00:00:00-05:00",
        "performer": [
          {
            "reference": "Practitioner/Practitioner-2521",
            "display": "Heather Fuentes Guerra MD"
          }
        ],
        "valueQuantity": {
          "value": 171.22305138948184,
          "unit": "mmHg"
        }
      },
      "request": {
        "method": "PUT",
        "url": "http://localhost:8080/cqf-ruler/baseDstu3/Observation/Observation-22458"
      }
    },
    {
      "fullUrl": "http://localhost:8080/cqf-ruler/baseDstu3/Observation/Observation-22459",
      "resource": {
        "resourceType": "Observation",
        "id": "Observation-22459",
        "meta": {
          "profile": [
            "http://hl7.org/fhir/us/hedis/StructureDefinition/hedis-observation"
          ]
        },
        "status": "final",
        "code": {
          "coding": [
            {
              "system": "http://loinc.org",
              "code": "8462-4",
              "display": "Diastolic blood pressure"
            }
          ]
        },
        "subject": {
          "reference": "Patient/Patient-1125",
          "display": "Ryan Arthur Paulson"
        },
        "context": {
          "reference": "Encounter/Encounter-256",
          "display": "Wellness Visit"
        },
        "effectiveDateTime": "1989-03-17T00:00:00-05:00",
        "performer": [
          {
            "reference": "Practitioner/Practitioner-2521",
            "display": "Heather Fuentes Guerra MD"
          }
        ],
        "valueQuantity": {
          "value": 94.5198721270944,
          "unit": "mmHg"
        }
      },
      "request": {
        "method": "PUT",
        "url": "http://localhost:8080/cqf-ruler/baseDstu3/Observation/Observation-22459"
      }
    },
    {
      "fullUrl": "http://localhost:8080/cqf-ruler/baseDstu3/Condition/Condition-22460",
      "resource": {
        "resourceType": "Condition",
        "id": "Condition-22460",
        "meta": {
          "profile": [
            "http://hl7.org/fhir/us/hedis/StructureDefinition/hedis-condition"
          ]
        },
        "clinicalStatus": "active",
        "verificationStatus": "confirmed",
        "code": {
          "coding": [
            {
              "system": "TBD",
              "code": "TBD",
              "display": "TBD"
            }
          ]
        },
        "subject": {
          "reference": "Patient/Patient-1125",
          "display": "Ryan Arthur Paulson"
        },
        "context": {
          "reference": "Encounter/Encounter-256",
          "display": "Wellness Visit"
        },
        "onsetDateTime": "1989-03-17T00:00:00-05:00",
        "assertedDate": "1989-03-17T00:00:00-05:00",
        "asserter": {
          "reference": "Practitioner/Practitioner-2521",
          "display": "Heather Fuentes Guerra MD"
        }
      },
      "request": {
        "method": "PUT",
        "url": "http://localhost:8080/cqf-ruler/baseDstu3/Condition/Condition-22460"
      }
    },
    {
      "fullUrl": "http://localhost:8080/cqf-ruler/baseDstu3/Observation/Observation-22461",
      "resource": {
        "resourceType": "Observation",
        "id": "Observation-22461",
        "meta": {
          "profile": [
            "http://hl7.org/fhir/us/hedis/StructureDefinition/hedis-observation"
          ]
        },
        "status": "final",
        "code": {
          "coding": [
            {
              "system": "http://loinc.org",
              "code": "8302-2",
              "display": "Body Height"
            }
          ]
        },
        "subject": {
          "reference": "Patient/Patient-1125",
          "display": "Ryan Arthur Paulson"
        },
        "context": {
          "reference": "Encounter/Encounter-256",
          "display": "Wellness Visit"
        },
        "effectiveDateTime": "1989-03-17T00:00:00-05:00",
        "performer": [
          {
            "reference": "Practitioner/Practitioner-2521",
            "display": "Heather Fuentes Guerra MD"
          }
        ],
        "valueQuantity": {
          "value": 142.9,
          "unit": "cm"
        }
      },
      "request": {
        "method": "PUT",
        "url": "http://localhost:8080/cqf-ruler/baseDstu3/Observation/Observation-22461"
      }
    },
    {
      "fullUrl": "http://localhost:8080/cqf-ruler/baseDstu3/Observation/Observation-22462",
      "resource": {
        "resourceType": "Observation",
        "id": "Observation-22462",
        "meta": {
          "profile": [
            "http://hl7.org/fhir/us/hedis/StructureDefinition/hedis-observation"
          ]
        },
        "status": "final",
        "code": {
          "coding": [
            {
              "system": "http://loinc.org",
              "code": "29463-7",
              "display": "Body Weight"
            }
          ]
        },
        "subject": {
          "reference": "Patient/Patient-1125",
          "display": "Ryan Arthur Paulson"
        },
        "context": {
          "reference": "Encounter/Encounter-256",
          "display": "Wellness Visit"
        },
        "effectiveDateTime": "1989-03-17T00:00:00-05:00",
        "performer": [
          {
            "reference": "Practitioner/Practitioner-2521",
            "display": "Heather Fuentes Guerra MD"
          }
        ],
        "valueQuantity": {
          "value": 46.7,
          "unit": "kg"
        }
      },
      "request": {
        "method": "PUT",
        "url": "http://localhost:8080/cqf-ruler/baseDstu3/Observation/Observation-22462"
      }
    },
    {
      "fullUrl": "http://localhost:8080/cqf-ruler/baseDstu3/Observation/Observation-22463",
      "resource": {
        "resourceType": "Observation",
        "id": "Observation-22463",
        "meta": {
          "profile": [
            "http://hl7.org/fhir/us/hedis/StructureDefinition/hedis-observation"
          ]
        },
        "status": "final",
        "code": {
          "coding": [
            {
              "system": "http://loinc.org",
              "code": "39156-5",
              "display": "Body Mass Index"
            }
          ]
        },
        "subject": {
          "reference": "Patient/Patient-1125",
          "display": "Ryan Arthur Paulson"
        },
        "context": {
          "reference": "Encounter/Encounter-256",
          "display": "Wellness Visit"
        },
        "effectiveDateTime": "1989-03-17T00:00:00-05:00",
        "performer": [
          {
            "reference": "Practitioner/Practitioner-2521",
            "display": "Heather Fuentes Guerra MD"
          }
        ],
        "valueQuantity": {
          "value": 22.86927637593956,
          "unit": "kg/m2"
        }
      },
      "request": {
        "method": "PUT",
        "url": "http://localhost:8080/cqf-ruler/baseDstu3/Observation/Observation-22463"
      }
    },
    {
      "fullUrl": "http://localhost:8080/cqf-ruler/baseDstu3/Observation/Observation-22466",
      "resource": {
        "resourceType": "Observation",
        "id": "Observation-22466",
        "meta": {
          "profile": [
            "http://hl7.org/fhir/us/hedis/StructureDefinition/hedis-observation"
          ]
        },
        "status": "final",
        "code": {
          "coding": [
            {
              "system": "http://loinc.org",
              "code": "55284-4",
              "display": "Blood Pressure"
            }
          ]
        },
        "subject": {
          "reference": "Patient/Patient-1125",
          "display": "Ryan Arthur Paulson"
        },
        "context": {
          "reference": "Encounter/Encounter-256",
          "display": "Wellness Visit"
        },
        "effectiveDateTime": "1989-03-17T00:00:00-05:00",
        "valueQuantity": {
          "value": 94.5198721270944,
          "unit": "mmHg"
        },
        "component": [
          {
            "code": {
              "coding": [
                {
                  "system": "http://loinc.org",
                  "code": "8480-6",
                  "display": "Systolic Blood Pressure"
                }
              ]
            }
          },
          {
            "code": {
              "coding": [
                {
                  "system": "http://loinc.org",
                  "code": "8462-4",
                  "display": "Diastolic Blood Pressure"
                }
              ]
            }
          }
        ]
      },
      "request": {
        "method": "PUT",
        "url": "http://localhost:8080/cqf-ruler/baseDstu3/Observation/Observation-22466"
      }
    },
    {
      "fullUrl": "http://localhost:8080/cqf-ruler/baseDstu3/Observation/Observation-22468",
      "resource": {
        "resourceType": "Observation",
        "id": "Observation-22468",
        "status": "final",
        "code": {
          "coding": [
            {
              "system": "http://loinc.org",
              "code": "8302-2",
              "display": "Height"
            }
          ]
        },
        "subject": {
          "reference": "Patient/Patient-1125",
          "display": "Ryan Arthur Paulson"
        },
        "context": {
          "reference": "Encounter/Encounter-256",
          "display": "Wellness Visit"
        },
        "effectiveDateTime": "1989-03-17T00:00:00-05:00",
        "performer": [
          {
            "reference": "Practitioner/Practitioner-2521",
            "display": "Heather Fuentes Guerra MD"
          }
        ],
        "valueQuantity": {
          "value": 142.9,
          "unit": "cm"
        }
      },
      "request": {
        "method": "PUT",
        "url": "http://localhost:8080/cqf-ruler/baseDstu3/Observation/Observation-22468"
      }
    },
    {
      "fullUrl": "http://localhost:8080/cqf-ruler/baseDstu3/Observation/Observation-22469",
      "resource": {
        "resourceType": "Observation",
        "id": "Observation-22469",
        "status": "final",
        "code": {
          "coding": [
            {
              "system": "http://loinc.org",
              "code": "29463-7",
              "display": "Weight"
            }
          ]
        },
        "subject": {
          "reference": "Patient/Patient-1125",
          "display": "Ryan Arthur Paulson"
        },
        "context": {
          "reference": "Encounter/Encounter-256",
          "display": "Wellness Visit"
        },
        "effectiveDateTime": "1989-03-17T00:00:00-05:00",
        "performer": [
          {
            "reference": "Practitioner/Practitioner-2521",
            "display": "Heather Fuentes Guerra MD"
          }
        ],
        "valueQuantity": {
          "value": 46.7,
          "unit": "kg"
        }
      },
      "request": {
        "method": "PUT",
        "url": "http://localhost:8080/cqf-ruler/baseDstu3/Observation/Observation-22469"
      }
    },
    {
      "fullUrl": "http://localhost:8080/cqf-ruler/baseDstu3/Observation/Observation-22470",
      "resource": {
        "resourceType": "Observation",
        "id": "Observation-22470",
        "status": "final",
        "code": {
          "coding": [
            {
              "system": "http://loinc.org",
              "code": "39156-5",
              "display": "BMI"
            }
          ]
        },
        "subject": {
          "reference": "Patient/Patient-1125",
          "display": "Ryan Arthur Paulson"
        },
        "context": {
          "reference": "Encounter/Encounter-256",
          "display": "Wellness Visit"
        },
        "effectiveDateTime": "1989-03-17T00:00:00-05:00",
        "performer": [
          {
            "reference": "Practitioner/Practitioner-2521",
            "display": "Heather Fuentes Guerra MD"
          }
        ],
        "valueQuantity": {
          "value": 22.86927637593956,
          "unit": "kg/m2"
        }
      },
      "request": {
        "method": "PUT",
        "url": "http://localhost:8080/cqf-ruler/baseDstu3/Observation/Observation-22470"
      }
    },
    {
      "fullUrl": "http://localhost:8080/cqf-ruler/baseDstu3/Observation/Observation-22471",
      "resource": {
        "resourceType": "Observation",
        "id": "Observation-22471",
        "status": "final",
        "code": {
          "coding": [
            {
              "system": "http://loinc.org",
              "code": "8310-5",
              "display": "Temperature"
            }
          ]
        },
        "subject": {
          "reference": "Patient/Patient-1125",
          "display": "Ryan Arthur Paulson"
        },
        "context": {
          "reference": "Encounter/Encounter-256",
          "display": "Wellness Visit"
        },
        "effectiveDateTime": "1989-03-17T00:00:00-05:00",
        "performer": [
          {
            "reference": "Practitioner/Practitioner-2521",
            "display": "Heather Fuentes Guerra MD"
          }
        ],
        "valueQuantity": {
          "value": 37.0,
          "unit": "C"
        }
      },
      "request": {
        "method": "PUT",
        "url": "http://localhost:8080/cqf-ruler/baseDstu3/Observation/Observation-22471"
      }
    },
    {
      "fullUrl": "http://localhost:8080/cqf-ruler/baseDstu3/Observation/Observation-22472",
      "resource": {
        "resourceType": "Observation",
        "id": "Observation-22472",
        "status": "final",
        "code": {
          "coding": [
            {
              "system": "http://loinc.org",
              "code": "8459-0",
              "display": "Systolic Blood Pressure"
            }
          ]
        },
        "subject": {
          "reference": "Patient/Patient-1125",
          "display": "Ryan Arthur Paulson"
        },
        "context": {
          "reference": "Encounter/Encounter-256",
          "display": "Wellness Visit"
        },
        "effectiveDateTime": "1989-03-17T00:00:00-05:00",
        "performer": [
          {
            "reference": "Practitioner/Practitioner-2521",
            "display": "Heather Fuentes Guerra MD"
          }
        ],
        "valueQuantity": {
          "value": 171.22305138948184,
          "unit": "mmHg"
        }
      },
      "request": {
        "method": "PUT",
        "url": "http://localhost:8080/cqf-ruler/baseDstu3/Observation/Observation-22472"
      }
    },
    {
      "fullUrl": "http://localhost:8080/cqf-ruler/baseDstu3/Observation/Observation-22473",
      "resource": {
        "resourceType": "Observation",
        "id": "Observation-22473",
        "status": "final",
        "code": {
          "coding": [
            {
              "system": "http://loinc.org",
              "code": "8453-3",
              "display": "Diastolic Blood Pressure"
            }
          ]
        },
        "subject": {
          "reference": "Patient/Patient-1125",
          "display": "Ryan Arthur Paulson"
        },
        "context": {
          "reference": "Encounter/Encounter-256",
          "display": "Wellness Visit"
        },
        "effectiveDateTime": "1989-03-17T00:00:00-05:00",
        "performer": [
          {
            "reference": "Practitioner/Practitioner-2521",
            "display": "Heather Fuentes Guerra MD"
          }
        ],
        "valueQuantity": {
          "value": 94.5198721270944,
          "unit": "mmHg"
        }
      },
      "request": {
        "method": "PUT",
        "url": "http://localhost:8080/cqf-ruler/baseDstu3/Observation/Observation-22473"
      }
    },
    {
      "fullUrl": "http://localhost:8080/cqf-ruler/baseDstu3/DiagnosticReport/DiagnosticReport-22467",
      "resource": {
        "resourceType": "DiagnosticReport",
        "id": "DiagnosticReport-22467",
        "meta": {
          "profile": [
            "http://hl7.org/fhir/us/hedis/StructureDefinition/hedis-diagnosticreport"
          ]
        },
        "status": "final",
        "category": {
          "coding": [
            {
              "system": "http://hl7.org/fhir/ValueSet/diagnostic-service-sections",
              "code": "LAB",
              "display": "Laboratory"
            }
          ]
        },
        "code": {
          "coding": [
            {
              "system": "http://loinc.org",
              "code": "8716-3",
              "display": "Vital Signs Panel"
            }
          ]
        },
        "subject": {
          "reference": "Patient/Patient-1125",
          "display": "Ryan Arthur Paulson"
        },
        "context": {
          "reference": "Encounter/Encounter-256",
          "display": "Wellness Visit"
        },
        "effectivePeriod": {
          "start": "1989-03-17T00:00:00-05:00",
          "end": "1989-03-17T00:00:00-05:00"
        },
        "issued": "1989-03-17T00:00:00.000-05:00",
        "result": [
          {
            "reference": "Observation/Observation-22468",
            "display": "Height"
          },
          {
            "reference": "Observation/Observation-22469",
            "display": "Weight"
          },
          {
            "reference": "Observation/Observation-22470",
            "display": "BMI"
          },
          {
            "reference": "Observation/Observation-22471",
            "display": "Temperature"
          },
          {
            "reference": "Observation/Observation-22472",
            "display": "Systolic Blood Pressure"
          },
          {
            "reference": "Observation/Observation-22473",
            "display": "Diastolic Blood Pressure"
          }
        ]
      },
      "request": {
        "method": "PUT",
        "url": "http://localhost:8080/cqf-ruler/baseDstu3/DiagnosticReport/DiagnosticReport-22467"
      }
    }
  ]
}