{
  "resourceType": "Bundle",
  "id": "Ryan Arthur Paulson-1125-Encounter-1586",
  "type": "transaction",
  "entry": [
    {
      "fullUrl": "http://localhost:8080/cqf-ruler/baseDstu3/Encounter/Encounter-1586",
      "resource": {
        "resourceType": "Encounter",
        "id": "Encounter-1586",
        "status": "finished",
        "class": {
          "system": "http://hl7.org/fhir/encounter-class",
          "code": "outpatient",
          "display": "Inpatient"
        },
        "subject": {
          "reference": "Patient/Patient-1125",
          "display": "Ryan Arthur Paulson"
        },
        "participant": [
          {
            "period": {
              "start": "2007-06-21T01:00:00-04:00",
              "end": "2007-06-21T01:00:00-04:00"
            },
            "individual": {
              "reference": "Practitioner/Practitioner-2521",
              "display": "Heather Fuentes Guerra MD"
            }
          }
        ],
        "period": {
          "start": "2007-06-21T01:00:00-04:00",
          "end": "2007-06-21T01:00:00-04:00"
        },
        "location": [
          {
            "location": {
              "reference": "Location/Location-1106",
              "display": "Cranston Family Medical"
            }
          }
        ],
        "serviceProvider": {
          "reference": "Organization/Organization-1106",
          "display": "Cranston Family Medical"
        }
      },
      "request": {
        "method": "PUT",
        "url": "http://localhost:8080/cqf-ruler/baseDstu3/Encounter/Encounter-1586"
      }
    },
    {
      "fullUrl": "http://localhost:8080/cqf-ruler/baseDstu3/Immunization/Immunization-327204",
      "resource": {
        "resourceType": "Immunization",
        "id": "Immunization-327204",
        "status": "completed",
        "notGiven": false,
        "vaccineCode": {
          "coding": [
            {
              "system": "http://hl7.org/fhir/sid/cvx",
              "code": "140",
              "display": "Influenza, seasonal, injectable, preservative free"
            }
          ]
        },
        "patient": {
          "reference": "Patient/Patient-1125",
          "display": "Ryan Arthur Paulson"
        },
        "date": "2007-06-21T01:00:00-04:00",
        "primarySource": true,
        "location": {
          "reference": "Location/Location-1106",
          "display": "Cranston Family Medical"
        },
        "practitioner": [
          {
            "actor": {
              "reference": "Practitioner/Practitioner-2521",
              "display": "Heather Fuentes Guerra MD"
            }
          }
        ]
      },
      "request": {
        "method": "PUT",
        "url": "http://localhost:8080/cqf-ruler/baseDstu3/Immunization/Immunization-327204"
      }
    },
    {
      "fullUrl": "http://localhost:8080/cqf-ruler/baseDstu3/Observation/Observation-391840",
      "resource": {
        "resourceType": "Observation",
        "id": "Observation-391840",
        "status": "final",
        "code": {
          "coding": [
            {
              "system": "http://loinc.org",
              "code": "8302-2",
              "display": "Height"
            }
          ]
        },
        "subject": {
          "reference": "Patient/Patient-1125",
          "display": "Ryan Arthur Paulson"
        },
        "context": {
          "reference": "Encounter/Encounter-1586",
          "display": "Cranston Family Medical"
        },
        "effectiveDateTime": "2007-06-21T01:00:00-04:00",
        "performer": [
          {
            "reference": "Practitioner/Practitioner-2521",
            "display": "Heather Fuentes Guerra MD"
          }
        ],
        "valueQuantity": {
          "value": 190.2,
          "unit": "cm"
        }
      },
      "request": {
        "method": "PUT",
        "url": "http://localhost:8080/cqf-ruler/baseDstu3/Observation/Observation-391840"
      }
    },
    {
      "fullUrl": "http://localhost:8080/cqf-ruler/baseDstu3/Observation/Observation-391841",
      "resource": {
        "resourceType": "Observation",
        "id": "Observation-391841",
        "status": "final",
        "code": {
          "coding": [
            {
              "system": "http://loinc.org",
              "code": "29463-7",
              "display": "Weight"
            }
          ]
        },
        "subject": {
          "reference": "Patient/Patient-1125",
          "display": "Ryan Arthur Paulson"
        },
        "context": {
          "reference": "Encounter/Encounter-1586",
          "display": "Cranston Family Medical"
        },
        "effectiveDateTime": "2007-06-21T01:00:00-04:00",
        "performer": [
          {
            "reference": "Practitioner/Practitioner-2521",
            "display": "Heather Fuentes Guerra MD"
          }
        ],
        "valueQuantity": {
          "value": 73.36082029208787,
          "unit": "kg"
        }
      },
      "request": {
        "method": "PUT",
        "url": "http://localhost:8080/cqf-ruler/baseDstu3/Observation/Observation-391841"
      }
    },
    {
      "fullUrl": "http://localhost:8080/cqf-ruler/baseDstu3/Observation/Observation-391842",
      "resource": {
        "resourceType": "Observation",
        "id": "Observation-391842",
        "status": "final",
        "code": {
          "coding": [
            {
              "system": "http://loinc.org",
              "code": "39156-5",
              "display": "BMI"
            }
          ]
        },
        "subject": {
          "reference": "Patient/Patient-1125",
          "display": "Ryan Arthur Paulson"
        },
        "context": {
          "reference": "Encounter/Encounter-1586",
          "display": "Cranston Family Medical"
        },
        "effectiveDateTime": "2007-06-21T01:00:00-04:00",
        "performer": [
          {
            "reference": "Practitioner/Practitioner-2521",
            "display": "Heather Fuentes Guerra MD"
          }
        ],
        "valueQuantity": {
          "value": 20.27884209882781,
          "unit": "kg/m2"
        }
      },
      "request": {
        "method": "PUT",
        "url": "http://localhost:8080/cqf-ruler/baseDstu3/Observation/Observation-391842"
      }
    },
    {
      "fullUrl": "http://localhost:8080/cqf-ruler/baseDstu3/Observation/Observation-391843",
      "resource": {
        "resourceType": "Observation",
        "id": "Observation-391843",
        "status": "final",
        "code": {
          "coding": [
            {
              "system": "http://loinc.org",
              "code": "8310-5",
              "display": "Temperature"
            }
          ]
        },
        "subject": {
          "reference": "Patient/Patient-1125",
          "display": "Ryan Arthur Paulson"
        },
        "context": {
          "reference": "Encounter/Encounter-1586",
          "display": "Cranston Family Medical"
        },
        "effectiveDateTime": "2007-06-21T01:00:00-04:00",
        "performer": [
          {
            "reference": "Practitioner/Practitioner-2521",
            "display": "Heather Fuentes Guerra MD"
          }
        ],
        "valueQuantity": {
          "value": 37.0,
          "unit": "C"
        }
      },
      "request": {
        "method": "PUT",
        "url": "http://localhost:8080/cqf-ruler/baseDstu3/Observation/Observation-391843"
      }
    },
    {
      "fullUrl": "http://localhost:8080/cqf-ruler/baseDstu3/Observation/Observation-391844",
      "resource": {
        "resourceType": "Observation",
        "id": "Observation-391844",
        "status": "final",
        "code": {
          "coding": [
            {
              "system": "http://loinc.org",
              "code": "8459-0",
              "display": "Systolic Blood Pressure"
            }
          ]
        },
        "subject": {
          "reference": "Patient/Patient-1125",
          "display": "Ryan Arthur Paulson"
        },
        "context": {
          "reference": "Encounter/Encounter-1586",
          "display": "Cranston Family Medical"
        },
        "effectiveDateTime": "2007-06-21T01:00:00-04:00",
        "performer": [
          {
            "reference": "Practitioner/Practitioner-2521",
            "display": "Heather Fuentes Guerra MD"
          }
        ],
        "valueQuantity": {
          "value": 102.18632377987554,
          "unit": "mmHg"
        }
      },
      "request": {
        "method": "PUT",
        "url": "http://localhost:8080/cqf-ruler/baseDstu3/Observation/Observation-391844"
      }
    },
    {
      "fullUrl": "http://localhost:8080/cqf-ruler/baseDstu3/Observation/Observation-391845",
      "resource": {
        "resourceType": "Observation",
        "id": "Observation-391845",
        "status": "final",
        "code": {
          "coding": [
            {
              "system": "http://loinc.org",
              "code": "8453-3",
              "display": "Diastolic Blood Pressure"
            }
          ]
        },
        "subject": {
          "reference": "Patient/Patient-1125",
          "display": "Ryan Arthur Paulson"
        },
        "context": {
          "reference": "Encounter/Encounter-1586",
          "display": "Cranston Family Medical"
        },
        "effectiveDateTime": "2007-06-21T01:00:00-04:00",
        "performer": [
          {
            "reference": "Practitioner/Practitioner-2521",
            "display": "Heather Fuentes Guerra MD"
          }
        ],
        "valueQuantity": {
          "value": 88.09546946416117,
          "unit": "mmHg"
        }
      },
      "request": {
        "method": "PUT",
        "url": "http://localhost:8080/cqf-ruler/baseDstu3/Observation/Observation-391845"
      }
    },
    {
      "fullUrl": "http://localhost:8080/cqf-ruler/baseDstu3/DiagnosticReport/DiagnosticReport-391839",
      "resource": {
        "resourceType": "DiagnosticReport",
        "id": "DiagnosticReport-391839",
        "status": "final",
        "code": {
          "coding": [
            {
              "system": "http://loinc.org",
              "code": "8716-3",
              "display": "Vital Signs Panel"
            }
          ]
        },
        "subject": {
          "reference": "Patient/Patient-1125",
          "display": "Ryan Arthur Paulson"
        },
        "context": {
          "reference": "Encounter/Encounter-1586",
          "display": "Cranston Family Medical"
        },
        "effectivePeriod": {
          "start": "2007-06-21T01:00:00-04:00",
          "end": "2007-06-21T01:00:00-04:00"
        },
        "issued": "2007-06-21T01:00:00.000-04:00",
        "result": [
          {
            "reference": "Observation/Observation-391840",
            "display": "Height"
          },
          {
            "reference": "Observation/Observation-391841",
            "display": "Weight"
          },
          {
            "reference": "Observation/Observation-391842",
            "display": "BMI"
          },
          {
            "reference": "Observation/Observation-391843",
            "display": "Temperature"
          },
          {
            "reference": "Observation/Observation-391844",
            "display": "Systolic Blood Pressure"
          },
          {
            "reference": "Observation/Observation-391845",
            "display": "Diastolic Blood Pressure"
          }
        ]
      },
      "request": {
        "method": "PUT",
        "url": "http://localhost:8080/cqf-ruler/baseDstu3/DiagnosticReport/DiagnosticReport-391839"
      }
    }
  ]
}