{
  "resourceType": "Bundle",
  "id": "Lee Alvin Huynh-6542-Encounter-2822",
  "type": "transaction",
  "entry": [
    {
      "fullUrl": "http://localhost:8080/cqf-ruler/baseDstu3/Encounter/Encounter-2822",
      "resource": {
        "resourceType": "Encounter",
        "id": "Encounter-2822",
        "status": "finished",
        "class": {
          "system": "http://hl7.org/fhir/encounter-class",
          "code": "outpatient",
          "display": "Inpatient"
        },
        "subject": {
          "reference": "Patient/Patient-6542",
          "display": "Lee Alvin Huynh"
        },
        "participant": [
          {
            "period": {
              "start": "2016-06-10T10:00:00-04:00",
              "end": "2016-06-10T10:00:00-04:00"
            },
            "individual": {
              "reference": "Practitioner/Practitioner-2519",
              "display": "Stanley Jason Garrett MD"
            }
          }
        ],
        "period": {
          "start": "2016-06-10T10:00:00-04:00",
          "end": "2016-06-10T10:00:00-04:00"
        },
        "location": [
          {
            "location": {
              "reference": "Location/Location-1104",
              "display": "Bay Area Family Practice"
            }
          }
        ],
        "serviceProvider": {
          "reference": "Organization/Organization-1104",
          "display": "Bay Area Family Practice"
        }
      },
      "request": {
        "method": "PUT",
        "url": "http://localhost:8080/cqf-ruler/baseDstu3/Encounter/Encounter-2822"
      }
    },
    {
      "fullUrl": "http://localhost:8080/cqf-ruler/baseDstu3/Immunization/Immunization-599957",
      "resource": {
        "resourceType": "Immunization",
        "id": "Immunization-599957",
        "status": "completed",
        "notGiven": false,
        "vaccineCode": {
          "coding": [
            {
              "system": "http://hl7.org/fhir/sid/cvx",
              "code": "140",
              "display": "Influenza, seasonal, injectable, preservative free"
            }
          ]
        },
        "patient": {
          "reference": "Patient/Patient-6542",
          "display": "Lee Alvin Huynh"
        },
        "date": "2016-06-10T10:00:00-04:00",
        "primarySource": true,
        "location": {
          "reference": "Location/Location-1104",
          "display": "Bay Area Family Practice"
        },
        "practitioner": [
          {
            "actor": {
              "reference": "Practitioner/Practitioner-2519",
              "display": "Stanley Jason Garrett MD"
            }
          }
        ]
      },
      "request": {
        "method": "PUT",
        "url": "http://localhost:8080/cqf-ruler/baseDstu3/Immunization/Immunization-599957"
      }
    },
    {
      "fullUrl": "http://localhost:8080/cqf-ruler/baseDstu3/Immunization/Immunization-599958",
      "resource": {
        "resourceType": "Immunization",
        "id": "Immunization-599958",
        "status": "completed",
        "notGiven": false,
        "vaccineCode": {
          "coding": [
            {
              "system": "http://hl7.org/fhir/sid/cvx",
              "code": "83",
              "display": "Hep A, ped/adol, 2 dose"
            }
          ]
        },
        "patient": {
          "reference": "Patient/Patient-6542",
          "display": "Lee Alvin Huynh"
        },
        "date": "2016-06-10T10:00:00-04:00",
        "primarySource": true,
        "location": {
          "reference": "Location/Location-1104",
          "display": "Bay Area Family Practice"
        },
        "practitioner": [
          {
            "actor": {
              "reference": "Practitioner/Practitioner-2519",
              "display": "Stanley Jason Garrett MD"
            }
          }
        ]
      },
      "request": {
        "method": "PUT",
        "url": "http://localhost:8080/cqf-ruler/baseDstu3/Immunization/Immunization-599958"
      }
    },
    {
      "fullUrl": "http://localhost:8080/cqf-ruler/baseDstu3/Observation/Observation-613096",
      "resource": {
        "resourceType": "Observation",
        "id": "Observation-613096",
        "status": "final",
        "code": {
          "coding": [
            {
              "system": "http://loinc.org",
              "code": "8302-2",
              "display": "Height"
            }
          ]
        },
        "subject": {
          "reference": "Patient/Patient-6542",
          "display": "Lee Alvin Huynh"
        },
        "context": {
          "reference": "Encounter/Encounter-2822",
          "display": "Bay Area Family Practice"
        },
        "effectiveDateTime": "2016-06-10T10:00:00-04:00",
        "performer": [
          {
            "reference": "Practitioner/Practitioner-2519",
            "display": "Stanley Jason Garrett MD"
          }
        ],
        "valueQuantity": {
          "value": 98.6,
          "unit": "cm"
        }
      },
      "request": {
        "method": "PUT",
        "url": "http://localhost:8080/cqf-ruler/baseDstu3/Observation/Observation-613096"
      }
    },
    {
      "fullUrl": "http://localhost:8080/cqf-ruler/baseDstu3/Observation/Observation-613097",
      "resource": {
        "resourceType": "Observation",
        "id": "Observation-613097",
        "status": "final",
        "code": {
          "coding": [
            {
              "system": "http://loinc.org",
              "code": "29463-7",
              "display": "Weight"
            }
          ]
        },
        "subject": {
          "reference": "Patient/Patient-6542",
          "display": "Lee Alvin Huynh"
        },
        "context": {
          "reference": "Encounter/Encounter-2822",
          "display": "Bay Area Family Practice"
        },
        "effectiveDateTime": "2016-06-10T10:00:00-04:00",
        "performer": [
          {
            "reference": "Practitioner/Practitioner-2519",
            "display": "Stanley Jason Garrett MD"
          }
        ],
        "valueQuantity": {
          "value": 0.0,
          "unit": "kg"
        }
      },
      "request": {
        "method": "PUT",
        "url": "http://localhost:8080/cqf-ruler/baseDstu3/Observation/Observation-613097"
      }
    },
    {
      "fullUrl": "http://localhost:8080/cqf-ruler/baseDstu3/Observation/Observation-613098",
      "resource": {
        "resourceType": "Observation",
        "id": "Observation-613098",
        "status": "final",
        "code": {
          "coding": [
            {
              "system": "http://loinc.org",
              "code": "39156-5",
              "display": "BMI"
            }
          ]
        },
        "subject": {
          "reference": "Patient/Patient-6542",
          "display": "Lee Alvin Huynh"
        },
        "context": {
          "reference": "Encounter/Encounter-2822",
          "display": "Bay Area Family Practice"
        },
        "effectiveDateTime": "2016-06-10T10:00:00-04:00",
        "performer": [
          {
            "reference": "Practitioner/Practitioner-2519",
            "display": "Stanley Jason Garrett MD"
          }
        ],
        "valueQuantity": {
          "value": 0.0,
          "unit": "kg/m2"
        }
      },
      "request": {
        "method": "PUT",
        "url": "http://localhost:8080/cqf-ruler/baseDstu3/Observation/Observation-613098"
      }
    },
    {
      "fullUrl": "http://localhost:8080/cqf-ruler/baseDstu3/Observation/Observation-613099",
      "resource": {
        "resourceType": "Observation",
        "id": "Observation-613099",
        "status": "final",
        "code": {
          "coding": [
            {
              "system": "http://loinc.org",
              "code": "8310-5",
              "display": "Temperature"
            }
          ]
        },
        "subject": {
          "reference": "Patient/Patient-6542",
          "display": "Lee Alvin Huynh"
        },
        "context": {
          "reference": "Encounter/Encounter-2822",
          "display": "Bay Area Family Practice"
        },
        "effectiveDateTime": "2016-06-10T10:00:00-04:00",
        "performer": [
          {
            "reference": "Practitioner/Practitioner-2519",
            "display": "Stanley Jason Garrett MD"
          }
        ],
        "valueQuantity": {
          "value": 37.0,
          "unit": "C"
        }
      },
      "request": {
        "method": "PUT",
        "url": "http://localhost:8080/cqf-ruler/baseDstu3/Observation/Observation-613099"
      }
    },
    {
      "fullUrl": "http://localhost:8080/cqf-ruler/baseDstu3/Observation/Observation-613100",
      "resource": {
        "resourceType": "Observation",
        "id": "Observation-613100",
        "status": "final",
        "code": {
          "coding": [
            {
              "system": "http://loinc.org",
              "code": "8459-0",
              "display": "Systolic Blood Pressure"
            }
          ]
        },
        "subject": {
          "reference": "Patient/Patient-6542",
          "display": "Lee Alvin Huynh"
        },
        "context": {
          "reference": "Encounter/Encounter-2822",
          "display": "Bay Area Family Practice"
        },
        "effectiveDateTime": "2016-06-10T10:00:00-04:00",
        "performer": [
          {
            "reference": "Practitioner/Practitioner-2519",
            "display": "Stanley Jason Garrett MD"
          }
        ],
        "valueQuantity": {
          "value": 124.68256758679324,
          "unit": "mmHg"
        }
      },
      "request": {
        "method": "PUT",
        "url": "http://localhost:8080/cqf-ruler/baseDstu3/Observation/Observation-613100"
      }
    },
    {
      "fullUrl": "http://localhost:8080/cqf-ruler/baseDstu3/Observation/Observation-613101",
      "resource": {
        "resourceType": "Observation",
        "id": "Observation-613101",
        "status": "final",
        "code": {
          "coding": [
            {
              "system": "http://loinc.org",
              "code": "8453-3",
              "display": "Diastolic Blood Pressure"
            }
          ]
        },
        "subject": {
          "reference": "Patient/Patient-6542",
          "display": "Lee Alvin Huynh"
        },
        "context": {
          "reference": "Encounter/Encounter-2822",
          "display": "Bay Area Family Practice"
        },
        "effectiveDateTime": "2016-06-10T10:00:00-04:00",
        "performer": [
          {
            "reference": "Practitioner/Practitioner-2519",
            "display": "Stanley Jason Garrett MD"
          }
        ],
        "valueQuantity": {
          "value": 78.65553771803808,
          "unit": "mmHg"
        }
      },
      "request": {
        "method": "PUT",
        "url": "http://localhost:8080/cqf-ruler/baseDstu3/Observation/Observation-613101"
      }
    },
    {
      "fullUrl": "http://localhost:8080/cqf-ruler/baseDstu3/DiagnosticReport/DiagnosticReport-613095",
      "resource": {
        "resourceType": "DiagnosticReport",
        "id": "DiagnosticReport-613095",
        "status": "final",
        "code": {
          "coding": [
            {
              "system": "http://loinc.org",
              "code": "8716-3",
              "display": "Vital Signs Panel"
            }
          ]
        },
        "subject": {
          "reference": "Patient/Patient-6542",
          "display": "Lee Alvin Huynh"
        },
        "context": {
          "reference": "Encounter/Encounter-2822",
          "display": "Bay Area Family Practice"
        },
        "effectivePeriod": {
          "start": "2016-06-10T10:00:00-04:00",
          "end": "2016-06-10T10:00:00-04:00"
        },
        "issued": "2016-06-10T10:00:00.000-04:00",
        "result": [
          {
            "reference": "Observation/Observation-613096",
            "display": "Height"
          },
          {
            "reference": "Observation/Observation-613097",
            "display": "Weight"
          },
          {
            "reference": "Observation/Observation-613098",
            "display": "BMI"
          },
          {
            "reference": "Observation/Observation-613099",
            "display": "Temperature"
          },
          {
            "reference": "Observation/Observation-613100",
            "display": "Systolic Blood Pressure"
          },
          {
            "reference": "Observation/Observation-613101",
            "display": "Diastolic Blood Pressure"
          }
        ]
      },
      "request": {
        "method": "PUT",
        "url": "http://localhost:8080/cqf-ruler/baseDstu3/DiagnosticReport/DiagnosticReport-613095"
      }
    }
  ]
}