{
  "resourceType": "Bundle",
  "id": "Lee-Alvin-Huynh-6542-Encounter-2283",
  "type": "transaction",
  "entry": [
    {
      "fullUrl": "http://localhost:8080/cqf-ruler/baseDstu3Encounter/Encounter-2283",
      "resource": {
        "resourceType": "Encounter",
        "id": "Encounter-2283",
        "status": "finished",
        "class": {
          "system": "http://hl7.org/fhir/encounter-class",
          "code": "outpatient",
          "display": "Inpatient"
        },
        "subject": {
          "reference": "Patient/Patient-6542",
          "display": "Lee Alvin Huynh"
        },
        "participant": [
          {
            "period": {
              "start": "2011-07-15T12:00:00-04:00",
              "end": "2011-07-15T12:00:00-04:00"
            },
            "individual": {
              "reference": "Practitioner/Practitioner-2519",
              "display": "Stanley Jason Garrett MD"
            }
          }
        ],
        "period": {
          "start": "2011-07-15T12:00:00-04:00",
          "end": "2011-07-15T12:00:00-04:00"
        },
        "location": [
          {
            "location": {
              "reference": "Location/Location-1104",
              "display": "Bay Area Family Practice"
            }
          }
        ],
        "serviceProvider": {
          "reference": "Organization/Organization-1104",
          "display": "Bay Area Family Practice"
        }
      },
      "request": {
        "method": "PUT",
        "url": "http://localhost:8080/cqf-ruler/baseDstu3Encounter/Encounter-2283"
      }
    },
    {
      "fullUrl": "http://localhost:8080/cqf-ruler/baseDstu3Observation/Observation-486656",
      "resource": {
        "resourceType": "Observation",
        "id": "Observation-486656",
        "status": "final",
        "code": {
          "coding": [
            {
              "system": "http://loinc.org",
              "code": "8302-2",
              "display": "Height"
            }
          ]
        },
        "subject": {
          "reference": "Patient/Patient-6542",
          "display": "Lee Alvin Huynh"
        },
        "context": {
          "reference": "Encounter/Encounter-2283",
          "display": "Wellness Visit"
        },
        "effectiveDateTime": "2011-07-15T12:00:00-04:00",
        "performer": [
          {
            "reference": "Practitioner/Practitioner-2519",
            "display": "Stanley Jason Garrett MD"
          }
        ],
        "valueQuantity": {
          "value": 0.0,
          "unit": "cm"
        }
      },
      "request": {
        "method": "PUT",
        "url": "http://localhost:8080/cqf-ruler/baseDstu3Observation/Observation-486656"
      }
    },
    {
      "fullUrl": "http://localhost:8080/cqf-ruler/baseDstu3Observation/Observation-486657",
      "resource": {
        "resourceType": "Observation",
        "id": "Observation-486657",
        "status": "final",
        "code": {
          "coding": [
            {
              "system": "http://loinc.org",
              "code": "29463-7",
              "display": "Weight"
            }
          ]
        },
        "subject": {
          "reference": "Patient/Patient-6542",
          "display": "Lee Alvin Huynh"
        },
        "context": {
          "reference": "Encounter/Encounter-2283",
          "display": "Wellness Visit"
        },
        "effectiveDateTime": "2011-07-15T12:00:00-04:00",
        "performer": [
          {
            "reference": "Practitioner/Practitioner-2519",
            "display": "Stanley Jason Garrett MD"
          }
        ],
        "valueQuantity": {
          "value": 0.0,
          "unit": "kg"
        }
      },
      "request": {
        "method": "PUT",
        "url": "http://localhost:8080/cqf-ruler/baseDstu3Observation/Observation-486657"
      }
    },
    {
      "fullUrl": "http://localhost:8080/cqf-ruler/baseDstu3Observation/Observation-486658",
      "resource": {
        "resourceType": "Observation",
        "id": "Observation-486658",
        "status": "final",
        "code": {
          "coding": [
            {
              "system": "http://loinc.org",
              "code": "39156-5",
              "display": "BMI"
            }
          ]
        },
        "subject": {
          "reference": "Patient/Patient-6542",
          "display": "Lee Alvin Huynh"
        },
        "context": {
          "reference": "Encounter/Encounter-2283",
          "display": "Wellness Visit"
        },
        "effectiveDateTime": "2011-07-15T12:00:00-04:00",
        "performer": [
          {
            "reference": "Practitioner/Practitioner-2519",
            "display": "Stanley Jason Garrett MD"
          }
        ],
        "valueQuantity": {
          "value": 0.0,
          "unit": "kg/m2"
        }
      },
      "request": {
        "method": "PUT",
        "url": "http://localhost:8080/cqf-ruler/baseDstu3Observation/Observation-486658"
      }
    },
    {
      "fullUrl": "http://localhost:8080/cqf-ruler/baseDstu3Observation/Observation-486659",
      "resource": {
        "resourceType": "Observation",
        "id": "Observation-486659",
        "status": "final",
        "code": {
          "coding": [
            {
              "system": "http://loinc.org",
              "code": "8310-5",
              "display": "Temperature"
            }
          ]
        },
        "subject": {
          "reference": "Patient/Patient-6542",
          "display": "Lee Alvin Huynh"
        },
        "context": {
          "reference": "Encounter/Encounter-2283",
          "display": "Wellness Visit"
        },
        "effectiveDateTime": "2011-07-15T12:00:00-04:00",
        "performer": [
          {
            "reference": "Practitioner/Practitioner-2519",
            "display": "Stanley Jason Garrett MD"
          }
        ],
        "valueQuantity": {
          "value": 37.0,
          "unit": "C"
        }
      },
      "request": {
        "method": "PUT",
        "url": "http://localhost:8080/cqf-ruler/baseDstu3Observation/Observation-486659"
      }
    },
    {
      "fullUrl": "http://localhost:8080/cqf-ruler/baseDstu3Observation/Observation-486660",
      "resource": {
        "resourceType": "Observation",
        "id": "Observation-486660",
        "status": "final",
        "code": {
          "coding": [
            {
              "system": "http://loinc.org",
              "code": "8459-0",
              "display": "Systolic Blood Pressure"
            }
          ]
        },
        "subject": {
          "reference": "Patient/Patient-6542",
          "display": "Lee Alvin Huynh"
        },
        "context": {
          "reference": "Encounter/Encounter-2283",
          "display": "Wellness Visit"
        },
        "effectiveDateTime": "2011-07-15T12:00:00-04:00",
        "performer": [
          {
            "reference": "Practitioner/Practitioner-2519",
            "display": "Stanley Jason Garrett MD"
          }
        ],
        "valueQuantity": {
          "value": 109.51292644000978,
          "unit": "mmHg"
        }
      },
      "request": {
        "method": "PUT",
        "url": "http://localhost:8080/cqf-ruler/baseDstu3Observation/Observation-486660"
      }
    },
    {
      "fullUrl": "http://localhost:8080/cqf-ruler/baseDstu3Observation/Observation-486661",
      "resource": {
        "resourceType": "Observation",
        "id": "Observation-486661",
        "status": "final",
        "code": {
          "coding": [
            {
              "system": "http://loinc.org",
              "code": "8453-3",
              "display": "Diastolic Blood Pressure"
            }
          ]
        },
        "subject": {
          "reference": "Patient/Patient-6542",
          "display": "Lee Alvin Huynh"
        },
        "context": {
          "reference": "Encounter/Encounter-2283",
          "display": "Wellness Visit"
        },
        "effectiveDateTime": "2011-07-15T12:00:00-04:00",
        "performer": [
          {
            "reference": "Practitioner/Practitioner-2519",
            "display": "Stanley Jason Garrett MD"
          }
        ],
        "valueQuantity": {
          "value": 74.44311024068197,
          "unit": "mmHg"
        }
      },
      "request": {
        "method": "PUT",
        "url": "http://localhost:8080/cqf-ruler/baseDstu3Observation/Observation-486661"
      }
    },
    {
      "fullUrl": "http://localhost:8080/cqf-ruler/baseDstu3DiagnosticReport/DiagnosticReport-486655",
      "resource": {
        "resourceType": "DiagnosticReport",
        "id": "DiagnosticReport-486655",
        "status": "final",
        "code": {
          "coding": [
            {
              "system": "http://loinc.org",
              "code": "8716-3",
              "display": "Vital Signs Panel"
            }
          ]
        },
        "subject": {
          "reference": "Patient/Patient-6542",
          "display": "Lee Alvin Huynh"
        },
        "context": {
          "reference": "Encounter/Encounter-2283",
          "display": "Wellness Visit"
        },
        "effectivePeriod": {
          "start": "2011-07-15T12:00:00-04:00",
          "end": "2011-07-15T12:00:00-04:00"
        },
        "issued": "2011-07-15T12:00:00.000-04:00",
        "result": [
          {
            "reference": "Observation/Observation-486656",
            "display": "Height"
          },
          {
            "reference": "Observation/Observation-486657",
            "display": "Weight"
          },
          {
            "reference": "Observation/Observation-486658",
            "display": "BMI"
          },
          {
            "reference": "Observation/Observation-486659",
            "display": "Temperature"
          },
          {
            "reference": "Observation/Observation-486660",
            "display": "Systolic Blood Pressure"
          },
          {
            "reference": "Observation/Observation-486661",
            "display": "Diastolic Blood Pressure"
          }
        ]
      },
      "request": {
        "method": "PUT",
        "url": "http://localhost:8080/cqf-ruler/baseDstu3DiagnosticReport/DiagnosticReport-486655"
      }
    }
  ]
}