{
  "resourceType": "Bundle",
  "id": "Erica Ortega Lam-6488-Encounter-2904",
  "type": "transaction",
  "entry": [
    {
      "fullUrl": "http://localhost:8080/cqf-ruler/baseDstu3/Encounter/Encounter-2904",
      "resource": {
        "resourceType": "Encounter",
        "id": "Encounter-2904",
        "status": "finished",
        "class": {
          "system": "http://hl7.org/fhir/encounter-class",
          "code": "outpatient",
          "display": "Inpatient"
        },
        "subject": {
          "reference": "Patient/Patient-6488",
          "display": "Erica Ortega Lam"
        },
        "participant": [
          {
            "period": {
              "start": "2017-11-03T00:00:00-04:00",
              "end": "2017-11-03T00:00:00-04:00"
            },
            "individual": {
              "reference": "Practitioner/Practitioner-2525",
              "display": "Kyle Christian Ballard MD"
            }
          }
        ],
        "period": {
          "start": "2017-11-03T00:00:00-04:00",
          "end": "2017-11-03T00:00:00-04:00"
        },
        "location": [
          {
            "location": {
              "reference": "Location/Location-1104",
              "display": "Bay Area Family Practice"
            }
          }
        ],
        "serviceProvider": {
          "reference": "Organization/Organization-1104",
          "display": "Bay Area Family Practice"
        }
      },
      "request": {
        "method": "PUT",
        "url": "http://localhost:8080/cqf-ruler/baseDstu3/Encounter/Encounter-2904"
      }
    },
    {
      "fullUrl": "http://localhost:8080/cqf-ruler/baseDstu3/Immunization/Immunization-622065",
      "resource": {
        "resourceType": "Immunization",
        "id": "Immunization-622065",
        "status": "completed",
        "notGiven": false,
        "vaccineCode": {
          "coding": [
            {
              "system": "http://hl7.org/fhir/sid/cvx",
              "code": "140",
              "display": "Influenza, seasonal, injectable, preservative free"
            }
          ]
        },
        "patient": {
          "reference": "Patient/Patient-6488",
          "display": "Erica Ortega Lam"
        },
        "date": "2017-11-03T00:00:00-04:00",
        "primarySource": true,
        "location": {
          "reference": "Location/Location-1104",
          "display": "Bay Area Family Practice"
        },
        "practitioner": [
          {
            "actor": {
              "reference": "Practitioner/Practitioner-2525",
              "display": "Kyle Christian Ballard MD"
            }
          }
        ]
      },
      "request": {
        "method": "PUT",
        "url": "http://localhost:8080/cqf-ruler/baseDstu3/Immunization/Immunization-622065"
      }
    },
    {
      "fullUrl": "http://localhost:8080/cqf-ruler/baseDstu3/Immunization/Immunization-622066",
      "resource": {
        "resourceType": "Immunization",
        "id": "Immunization-622066",
        "status": "completed",
        "notGiven": false,
        "vaccineCode": {
          "coding": [
            {
              "system": "http://hl7.org/fhir/sid/cvx",
              "code": "113",
              "display": "Td (adult) preservative free"
            }
          ]
        },
        "patient": {
          "reference": "Patient/Patient-6488",
          "display": "Erica Ortega Lam"
        },
        "date": "2017-11-03T00:00:00-04:00",
        "primarySource": true,
        "location": {
          "reference": "Location/Location-1104",
          "display": "Bay Area Family Practice"
        },
        "practitioner": [
          {
            "actor": {
              "reference": "Practitioner/Practitioner-2525",
              "display": "Kyle Christian Ballard MD"
            }
          }
        ]
      },
      "request": {
        "method": "PUT",
        "url": "http://localhost:8080/cqf-ruler/baseDstu3/Immunization/Immunization-622066"
      }
    },
    {
      "fullUrl": "http://localhost:8080/cqf-ruler/baseDstu3/Procedure/Procedure-648818",
      "resource": {
        "resourceType": "Procedure",
        "id": "Procedure-648818",
        "status": "completed",
        "code": {
          "coding": [
            {
              "system": "http://www.ama-assn.org/go/cpt",
              "code": "82270",
              "display": "Blood, occult, by peroxidase activity (eg, guaiac), qualitative; feces, consecutive collected specimens with single determination, for colorectal neoplasm screening (ie, patient was provided 3 cards or single triple card for consecutive collection)"
            }
          ]
        },
        "subject": {
          "reference": "Patient/Patient-6488",
          "display": "Erica Ortega Lam"
        },
        "context": {
          "reference": "Encounter/Encounter-2904",
          "display": "Bay Area Family Practice"
        },
        "performedPeriod": {
          "start": "2017-11-03T00:00:00-04:00",
          "end": "2017-11-03T00:00:00-04:00"
        },
        "performer": [
          {
            "actor": {
              "reference": "Practitioner/Practitioner-2525",
              "display": "Kyle Christian Ballard MD"
            }
          }
        ],
        "location": {
          "reference": "Location/Location-1104",
          "display": "Bay Area Family Practice"
        }
      },
      "request": {
        "method": "PUT",
        "url": "http://localhost:8080/cqf-ruler/baseDstu3/Procedure/Procedure-648818"
      }
    },
    {
      "fullUrl": "http://localhost:8080/cqf-ruler/baseDstu3/Observation/Observation-648819",
      "resource": {
        "resourceType": "Observation",
        "id": "Observation-648819",
        "status": "final",
        "code": {
          "coding": [
            {
              "system": "http://www.ama-assn.org/go/cpt",
              "code": "82270",
              "display": "Blood, occult, by peroxidase activity (eg, guaiac), qualitative; feces, consecutive collected specimens with single determination, for colorectal neoplasm screening (ie, patient was provided 3 cards or single triple card for consecutive collection)"
            }
          ]
        },
        "subject": {
          "reference": "Patient/Patient-6488",
          "display": "Erica Ortega Lam"
        },
        "context": {
          "reference": "Encounter/Encounter-2904",
          "display": "Bay Area Family Practice"
        },
        "effectivePeriod": {
          "start": "2017-11-03T00:00:00-04:00",
          "end": "2017-11-03T00:00:00-04:00"
        },
        "performer": [
          {
            "reference": "Practitioner/Practitioner-2525",
            "display": "Kyle Christian Ballard MD"
          }
        ],
        "valueString": "NEGATIVE"
      },
      "request": {
        "method": "PUT",
        "url": "http://localhost:8080/cqf-ruler/baseDstu3/Observation/Observation-648819"
      }
    },
    {
      "fullUrl": "http://localhost:8080/cqf-ruler/baseDstu3/Observation/Observation-648821",
      "resource": {
        "resourceType": "Observation",
        "id": "Observation-648821",
        "status": "final",
        "code": {
          "coding": [
            {
              "system": "http://loinc.org",
              "code": "8302-2",
              "display": "Height"
            }
          ]
        },
        "subject": {
          "reference": "Patient/Patient-6488",
          "display": "Erica Ortega Lam"
        },
        "context": {
          "reference": "Encounter/Encounter-2904",
          "display": "Bay Area Family Practice"
        },
        "effectiveDateTime": "2017-11-03T00:00:00-04:00",
        "performer": [
          {
            "reference": "Practitioner/Practitioner-2525",
            "display": "Kyle Christian Ballard MD"
          }
        ],
        "valueQuantity": {
          "value": 171.6,
          "unit": "cm"
        }
      },
      "request": {
        "method": "PUT",
        "url": "http://localhost:8080/cqf-ruler/baseDstu3/Observation/Observation-648821"
      }
    },
    {
      "fullUrl": "http://localhost:8080/cqf-ruler/baseDstu3/Observation/Observation-648822",
      "resource": {
        "resourceType": "Observation",
        "id": "Observation-648822",
        "status": "final",
        "code": {
          "coding": [
            {
              "system": "http://loinc.org",
              "code": "29463-7",
              "display": "Weight"
            }
          ]
        },
        "subject": {
          "reference": "Patient/Patient-6488",
          "display": "Erica Ortega Lam"
        },
        "context": {
          "reference": "Encounter/Encounter-2904",
          "display": "Bay Area Family Practice"
        },
        "effectiveDateTime": "2017-11-03T00:00:00-04:00",
        "performer": [
          {
            "reference": "Practitioner/Practitioner-2525",
            "display": "Kyle Christian Ballard MD"
          }
        ],
        "valueQuantity": {
          "value": 113.12163482384071,
          "unit": "kg"
        }
      },
      "request": {
        "method": "PUT",
        "url": "http://localhost:8080/cqf-ruler/baseDstu3/Observation/Observation-648822"
      }
    },
    {
      "fullUrl": "http://localhost:8080/cqf-ruler/baseDstu3/Observation/Observation-648823",
      "resource": {
        "resourceType": "Observation",
        "id": "Observation-648823",
        "status": "final",
        "code": {
          "coding": [
            {
              "system": "http://loinc.org",
              "code": "39156-5",
              "display": "BMI"
            }
          ]
        },
        "subject": {
          "reference": "Patient/Patient-6488",
          "display": "Erica Ortega Lam"
        },
        "context": {
          "reference": "Encounter/Encounter-2904",
          "display": "Bay Area Family Practice"
        },
        "effectiveDateTime": "2017-11-03T00:00:00-04:00",
        "performer": [
          {
            "reference": "Practitioner/Practitioner-2525",
            "display": "Kyle Christian Ballard MD"
          }
        ],
        "valueQuantity": {
          "value": 38.41590828396958,
          "unit": "kg/m2"
        }
      },
      "request": {
        "method": "PUT",
        "url": "http://localhost:8080/cqf-ruler/baseDstu3/Observation/Observation-648823"
      }
    },
    {
      "fullUrl": "http://localhost:8080/cqf-ruler/baseDstu3/Observation/Observation-648824",
      "resource": {
        "resourceType": "Observation",
        "id": "Observation-648824",
        "status": "final",
        "code": {
          "coding": [
            {
              "system": "http://loinc.org",
              "code": "8310-5",
              "display": "Temperature"
            }
          ]
        },
        "subject": {
          "reference": "Patient/Patient-6488",
          "display": "Erica Ortega Lam"
        },
        "context": {
          "reference": "Encounter/Encounter-2904",
          "display": "Bay Area Family Practice"
        },
        "effectiveDateTime": "2017-11-03T00:00:00-04:00",
        "performer": [
          {
            "reference": "Practitioner/Practitioner-2525",
            "display": "Kyle Christian Ballard MD"
          }
        ],
        "valueQuantity": {
          "value": 37.0,
          "unit": "C"
        }
      },
      "request": {
        "method": "PUT",
        "url": "http://localhost:8080/cqf-ruler/baseDstu3/Observation/Observation-648824"
      }
    },
    {
      "fullUrl": "http://localhost:8080/cqf-ruler/baseDstu3/Observation/Observation-648825",
      "resource": {
        "resourceType": "Observation",
        "id": "Observation-648825",
        "status": "final",
        "code": {
          "coding": [
            {
              "system": "http://loinc.org",
              "code": "8459-0",
              "display": "Systolic Blood Pressure"
            }
          ]
        },
        "subject": {
          "reference": "Patient/Patient-6488",
          "display": "Erica Ortega Lam"
        },
        "context": {
          "reference": "Encounter/Encounter-2904",
          "display": "Bay Area Family Practice"
        },
        "effectiveDateTime": "2017-11-03T00:00:00-04:00",
        "performer": [
          {
            "reference": "Practitioner/Practitioner-2525",
            "display": "Kyle Christian Ballard MD"
          }
        ],
        "valueQuantity": {
          "value": 124.8941866699823,
          "unit": "mmHg"
        }
      },
      "request": {
        "method": "PUT",
        "url": "http://localhost:8080/cqf-ruler/baseDstu3/Observation/Observation-648825"
      }
    },
    {
      "fullUrl": "http://localhost:8080/cqf-ruler/baseDstu3/Observation/Observation-648826",
      "resource": {
        "resourceType": "Observation",
        "id": "Observation-648826",
        "status": "final",
        "code": {
          "coding": [
            {
              "system": "http://loinc.org",
              "code": "8453-3",
              "display": "Diastolic Blood Pressure"
            }
          ]
        },
        "subject": {
          "reference": "Patient/Patient-6488",
          "display": "Erica Ortega Lam"
        },
        "context": {
          "reference": "Encounter/Encounter-2904",
          "display": "Bay Area Family Practice"
        },
        "effectiveDateTime": "2017-11-03T00:00:00-04:00",
        "performer": [
          {
            "reference": "Practitioner/Practitioner-2525",
            "display": "Kyle Christian Ballard MD"
          }
        ],
        "valueQuantity": {
          "value": 86.90865098955116,
          "unit": "mmHg"
        }
      },
      "request": {
        "method": "PUT",
        "url": "http://localhost:8080/cqf-ruler/baseDstu3/Observation/Observation-648826"
      }
    },
    {
      "fullUrl": "http://localhost:8080/cqf-ruler/baseDstu3/DiagnosticReport/DiagnosticReport-648820",
      "resource": {
        "resourceType": "DiagnosticReport",
        "id": "DiagnosticReport-648820",
        "status": "final",
        "code": {
          "coding": [
            {
              "system": "http://loinc.org",
              "code": "8716-3",
              "display": "Vital Signs Panel"
            }
          ]
        },
        "subject": {
          "reference": "Patient/Patient-6488",
          "display": "Erica Ortega Lam"
        },
        "context": {
          "reference": "Encounter/Encounter-2904",
          "display": "Bay Area Family Practice"
        },
        "effectivePeriod": {
          "start": "2017-11-03T00:00:00-04:00",
          "end": "2017-11-03T00:00:00-04:00"
        },
        "issued": "2017-11-03T00:00:00.000-04:00",
        "result": [
          {
            "reference": "Observation/Observation-648821",
            "display": "Height"
          },
          {
            "reference": "Observation/Observation-648822",
            "display": "Weight"
          },
          {
            "reference": "Observation/Observation-648823",
            "display": "BMI"
          },
          {
            "reference": "Observation/Observation-648824",
            "display": "Temperature"
          },
          {
            "reference": "Observation/Observation-648825",
            "display": "Systolic Blood Pressure"
          },
          {
            "reference": "Observation/Observation-648826",
            "display": "Diastolic Blood Pressure"
          }
        ]
      },
      "request": {
        "method": "PUT",
        "url": "http://localhost:8080/cqf-ruler/baseDstu3/DiagnosticReport/DiagnosticReport-648820"
      }
    }
  ]
}