{
  "resourceType": "Bundle",
  "id": "Erica-Ortega-Lam-6488-Encounter-1815",
  "type": "transaction",
  "entry": [
    {
      "fullUrl": "http://localhost:8080/cqf-ruler/baseDstu3/Encounter/Encounter-1815",
      "resource": {
        "resourceType": "Encounter",
        "id": "Encounter-1815",
        "meta": {
          "profile": [
            "http://hl7.org/fhir/us/hedis/StructureDefinition/hedis-encounter"
          ]
        },
        "status": "finished",
        "class": {
          "system": "http://hl7.org/fhir/encounter-class",
          "code": "inpatient",
          "display": "Inpatient"
        },
        "subject": {
          "reference": "Patient/Patient-6488",
          "display": "Erica Ortega Lam"
        },
        "participant": [
          {
            "period": {
              "start": "1988-11-22T01:26:00-05:00",
              "end": "1988-11-22T06:26:00-05:00"
            },
            "individual": {
              "reference": "Practitioner/Practitioner-2535",
              "display": "Clifton Terrence Carey MD"
            }
          }
        ],
        "period": {
          "start": "1988-11-22T01:26:00-05:00",
          "end": "1988-11-22T06:26:00-05:00"
        },
        "hospitalization": {
          "dischargeDisposition": {
            "coding": [
              {
                "system": "http://hl7.org/fhir/discharge-disposition",
                "code": "home",
                "display": "Home"
              }
            ]
          }
        },
        "location": [
          {
            "location": {
              "reference": "Location/Location-1001",
              "display": "Windward General Hospital"
            }
          }
        ],
        "serviceProvider": {
          "reference": "Organization/Organization-1001",
          "display": "Windward General Hospital"
        }
      },
      "request": {
        "method": "PUT",
        "url": "http://localhost:8080/cqf-ruler/baseDstu3/Encounter/Encounter-1815"
      }
    },
    {
      "fullUrl": "http://localhost:8080/cqf-ruler/baseDstu3/Procedure/Procedure-337748",
      "resource": {
        "resourceType": "Procedure",
        "id": "Procedure-337748",
        "meta": {
          "profile": [
            "http://hl7.org/fhir/us/hedis/StructureDefinition/hedis-procedure"
          ]
        },
        "status": "completed",
        "code": {
          "coding": [
            {
              "system": "https://www.cms.gov/Medicare/Coding/ICD10/index.html",
              "code": "0DTE7ZZ",
              "display": "Resection of Large Intestine, Via Natural or Artificial Opening"
            }
          ]
        },
        "subject": {
          "reference": "Patient/Patient-6488",
          "display": "Erica Ortega Lam"
        },
        "context": {
          "reference": "Encounter/Encounter-1815",
          "display": "Colectomy_Encounter"
        },
        "performedPeriod": {
          "start": "1988-11-22T06:26:00-05:00",
          "end": "1988-11-22T06:26:00-05:00"
        },
        "performer": [
          {
            "actor": {
              "reference": "Practitioner/Practitioner-2535",
              "display": "Clifton Terrence Carey MD"
            }
          }
        ],
        "location": {
          "reference": "Location/Location-1001",
          "display": "Windward General Hospital"
        }
      },
      "request": {
        "method": "PUT",
        "url": "http://localhost:8080/cqf-ruler/baseDstu3/Procedure/Procedure-337748"
      }
    },
    {
      "fullUrl": "http://localhost:8080/cqf-ruler/baseDstu3/Observation/Observation-337751",
      "resource": {
        "resourceType": "Observation",
        "id": "Observation-337751",
        "status": "final",
        "code": {
          "coding": [
            {
              "system": "http://loinc.org",
              "code": "8302-2",
              "display": "Height"
            }
          ]
        },
        "subject": {
          "reference": "Patient/Patient-6488",
          "display": "Erica Ortega Lam"
        },
        "context": {
          "reference": "Encounter/Encounter-1815",
          "display": "Colectomy_Encounter"
        },
        "effectiveDateTime": "1988-11-22T01:26:00-05:00",
        "performer": [
          {
            "reference": "Practitioner/Practitioner-2535",
            "display": "Clifton Terrence Carey MD"
          }
        ],
        "valueQuantity": {
          "value": 171.6,
          "unit": "cm"
        }
      },
      "request": {
        "method": "PUT",
        "url": "http://localhost:8080/cqf-ruler/baseDstu3/Observation/Observation-337751"
      }
    },
    {
      "fullUrl": "http://localhost:8080/cqf-ruler/baseDstu3/Observation/Observation-337752",
      "resource": {
        "resourceType": "Observation",
        "id": "Observation-337752",
        "status": "final",
        "code": {
          "coding": [
            {
              "system": "http://loinc.org",
              "code": "29463-7",
              "display": "Weight"
            }
          ]
        },
        "subject": {
          "reference": "Patient/Patient-6488",
          "display": "Erica Ortega Lam"
        },
        "context": {
          "reference": "Encounter/Encounter-1815",
          "display": "Colectomy_Encounter"
        },
        "effectiveDateTime": "1988-11-22T01:26:00-05:00",
        "performer": [
          {
            "reference": "Practitioner/Practitioner-2535",
            "display": "Clifton Terrence Carey MD"
          }
        ],
        "valueQuantity": {
          "value": 101.55730213147966,
          "unit": "kg"
        }
      },
      "request": {
        "method": "PUT",
        "url": "http://localhost:8080/cqf-ruler/baseDstu3/Observation/Observation-337752"
      }
    },
    {
      "fullUrl": "http://localhost:8080/cqf-ruler/baseDstu3/Observation/Observation-337753",
      "resource": {
        "resourceType": "Observation",
        "id": "Observation-337753",
        "status": "final",
        "code": {
          "coding": [
            {
              "system": "http://loinc.org",
              "code": "39156-5",
              "display": "BMI"
            }
          ]
        },
        "subject": {
          "reference": "Patient/Patient-6488",
          "display": "Erica Ortega Lam"
        },
        "context": {
          "reference": "Encounter/Encounter-1815",
          "display": "Colectomy_Encounter"
        },
        "effectiveDateTime": "1988-11-22T01:26:00-05:00",
        "performer": [
          {
            "reference": "Practitioner/Practitioner-2535",
            "display": "Clifton Terrence Carey MD"
          }
        ],
        "valueQuantity": {
          "value": 34.48868123525453,
          "unit": "kg/m2"
        }
      },
      "request": {
        "method": "PUT",
        "url": "http://localhost:8080/cqf-ruler/baseDstu3/Observation/Observation-337753"
      }
    },
    {
      "fullUrl": "http://localhost:8080/cqf-ruler/baseDstu3/Observation/Observation-337754",
      "resource": {
        "resourceType": "Observation",
        "id": "Observation-337754",
        "status": "final",
        "code": {
          "coding": [
            {
              "system": "http://loinc.org",
              "code": "8310-5",
              "display": "Temperature"
            }
          ]
        },
        "subject": {
          "reference": "Patient/Patient-6488",
          "display": "Erica Ortega Lam"
        },
        "context": {
          "reference": "Encounter/Encounter-1815",
          "display": "Colectomy_Encounter"
        },
        "effectiveDateTime": "1988-11-22T01:26:00-05:00",
        "performer": [
          {
            "reference": "Practitioner/Practitioner-2535",
            "display": "Clifton Terrence Carey MD"
          }
        ],
        "valueQuantity": {
          "value": 37.0,
          "unit": "C"
        }
      },
      "request": {
        "method": "PUT",
        "url": "http://localhost:8080/cqf-ruler/baseDstu3/Observation/Observation-337754"
      }
    },
    {
      "fullUrl": "http://localhost:8080/cqf-ruler/baseDstu3/Observation/Observation-337755",
      "resource": {
        "resourceType": "Observation",
        "id": "Observation-337755",
        "status": "final",
        "code": {
          "coding": [
            {
              "system": "http://loinc.org",
              "code": "8459-0",
              "display": "Systolic Blood Pressure"
            }
          ]
        },
        "subject": {
          "reference": "Patient/Patient-6488",
          "display": "Erica Ortega Lam"
        },
        "context": {
          "reference": "Encounter/Encounter-1815",
          "display": "Colectomy_Encounter"
        },
        "effectiveDateTime": "1988-11-22T01:26:00-05:00",
        "performer": [
          {
            "reference": "Practitioner/Practitioner-2535",
            "display": "Clifton Terrence Carey MD"
          }
        ],
        "valueQuantity": {
          "value": 165.94991618499392,
          "unit": "mmHg"
        }
      },
      "request": {
        "method": "PUT",
        "url": "http://localhost:8080/cqf-ruler/baseDstu3/Observation/Observation-337755"
      }
    },
    {
      "fullUrl": "http://localhost:8080/cqf-ruler/baseDstu3/Observation/Observation-337756",
      "resource": {
        "resourceType": "Observation",
        "id": "Observation-337756",
        "status": "final",
        "code": {
          "coding": [
            {
              "system": "http://loinc.org",
              "code": "8453-3",
              "display": "Diastolic Blood Pressure"
            }
          ]
        },
        "subject": {
          "reference": "Patient/Patient-6488",
          "display": "Erica Ortega Lam"
        },
        "context": {
          "reference": "Encounter/Encounter-1815",
          "display": "Colectomy_Encounter"
        },
        "effectiveDateTime": "1988-11-22T01:26:00-05:00",
        "performer": [
          {
            "reference": "Practitioner/Practitioner-2535",
            "display": "Clifton Terrence Carey MD"
          }
        ],
        "valueQuantity": {
          "value": 113.80286848697557,
          "unit": "mmHg"
        }
      },
      "request": {
        "method": "PUT",
        "url": "http://localhost:8080/cqf-ruler/baseDstu3/Observation/Observation-337756"
      }
    },
    {
      "fullUrl": "http://localhost:8080/cqf-ruler/baseDstu3/DiagnosticReport/DiagnosticReport-337750",
      "resource": {
        "resourceType": "DiagnosticReport",
        "id": "DiagnosticReport-337750",
        "meta": {
          "profile": [
            "http://hl7.org/fhir/us/hedis/StructureDefinition/hedis-diagnosticreport"
          ]
        },
        "status": "final",
        "category": {
          "coding": [
            {
              "system": "http://hl7.org/fhir/ValueSet/diagnostic-service-sections",
              "code": "LAB",
              "display": "Laboratory"
            }
          ]
        },
        "code": {
          "coding": [
            {
              "system": "http://loinc.org",
              "code": "8716-3",
              "display": "Vital Signs Panel"
            }
          ]
        },
        "subject": {
          "reference": "Patient/Patient-6488",
          "display": "Erica Ortega Lam"
        },
        "context": {
          "reference": "Encounter/Encounter-1815",
          "display": "Colectomy_Encounter"
        },
        "effectivePeriod": {
          "start": "1988-11-22T01:26:00-05:00",
          "end": "1988-11-22T01:26:00-05:00"
        },
        "issued": "1988-11-22T01:26:00.000-05:00",
        "result": [
          {
            "reference": "Observation/Observation-337751",
            "display": "Height"
          },
          {
            "reference": "Observation/Observation-337752",
            "display": "Weight"
          },
          {
            "reference": "Observation/Observation-337753",
            "display": "BMI"
          },
          {
            "reference": "Observation/Observation-337754",
            "display": "Temperature"
          },
          {
            "reference": "Observation/Observation-337755",
            "display": "Systolic Blood Pressure"
          },
          {
            "reference": "Observation/Observation-337756",
            "display": "Diastolic Blood Pressure"
          }
        ]
      },
      "request": {
        "method": "PUT",
        "url": "http://localhost:8080/cqf-ruler/baseDstu3/DiagnosticReport/DiagnosticReport-337750"
      }
    }
  ]
}