{
  "resourceType": "Bundle",
  "id": "Karl-Ron-Costa-6541-Encounter-4561",
  "type": "transaction",
  "entry": [
    {
      "fullUrl": "http://localhost:8080/cqf-ruler/baseDstu3/Encounter/Encounter-4561",
      "resource": {
        "resourceType": "Encounter",
        "id": "Encounter-4561",
        "meta": {
          "profile": [
            "http://hl7.org/fhir/us/hedis/StructureDefinition/hedis-encounter"
          ]
        },
        "status": "finished",
        "class": {
          "system": "http://hl7.org/fhir/encounter-class",
          "code": "outpatient",
          "display": "Outpatient"
        },
        "type": [
          {
            "coding": [
              {
                "system": "http://www.ama-assn.org/go/cpt",
                "code": "99241",
                "display": "OFFICE CONSULTATION"
              }
            ]
          }
        ],
        "subject": {
          "reference": "Patient/Patient-6541",
          "display": "Karl Ron Costa"
        },
        "participant": [
          {
            "period": {
              "start": "2017-11-23T00:00:00-05:00",
              "end": "2017-11-23T00:00:00-05:00"
            },
            "individual": {
              "reference": "Practitioner/Practitioner-2518",
              "display": "Jane Rosemary Saunders MD"
            }
          }
        ],
        "period": {
          "start": "2017-11-23T00:00:00-05:00",
          "end": "2017-11-23T00:00:00-05:00"
        },
        "reason": [
          {
            "coding": [
              {
                "system": "http://snomed.info/sct",
                "code": "310495003",
                "display": "Mild depression (disorder)"
              }
            ]
          }
        ],
        "location": [
          {
            "location": {
              "reference": "Location/Location-1103",
              "display": "Acme Medical Center"
            }
          }
        ],
        "serviceProvider": {
          "reference": "Organization/Organization-1103",
          "display": "Acme Medical Center"
        }
      },
      "request": {
        "method": "PUT",
        "url": "http://localhost:8080/cqf-ruler/baseDstu3/Encounter/Encounter-4561"
      }
    },
    {
      "fullUrl": "http://localhost:8080/cqf-ruler/baseDstu3/Procedure/Procedure-698439",
      "resource": {
        "resourceType": "Procedure",
        "id": "Procedure-698439",
        "meta": {
          "profile": [
            "http://hl7.org/fhir/us/hedis/StructureDefinition/hedis-procedure"
          ]
        },
        "status": "completed",
        "code": {
          "coding": [
            {
              "system": "http://test",
              "code": "2.16.840.1.113883.3.67.1.101.11.723",
              "display": "2.16.840.1.113883.3.67.1.101.11.723"
            }
          ]
        },
        "subject": {
          "reference": "Patient/Patient-6541",
          "display": "Karl Ron Costa"
        },
        "context": {
          "reference": "Encounter/Encounter-4561",
          "display": "DRR_Encounter"
        },
        "performedPeriod": {
          "start": "2017-11-23T00:00:00-05:00",
          "end": "2017-11-23T00:00:00-05:00"
        },
        "performer": [
          {
            "actor": {
              "reference": "Practitioner/Practitioner-2518",
              "display": "Jane Rosemary Saunders MD"
            }
          }
        ],
        "location": {
          "reference": "Location/Location-1103",
          "display": "Acme Medical Center"
        }
      },
      "request": {
        "method": "PUT",
        "url": "http://localhost:8080/cqf-ruler/baseDstu3/Procedure/Procedure-698439"
      }
    },
    {
      "fullUrl": "http://localhost:8080/cqf-ruler/baseDstu3/Observation/Observation-698440",
      "resource": {
        "resourceType": "Observation",
        "id": "Observation-698440",
        "meta": {
          "profile": [
            "http://hl7.org/fhir/us/hedis/StructureDefinition/hedis-observation"
          ]
        },
        "status": "final",
        "code": {
          "coding": [
            {
              "system": "http://cqframework.info/codesystem/placeholder",
              "code": "00009",
              "display": "PHQ-9 Modified Score"
            }
          ]
        },
        "subject": {
          "reference": "Patient/Patient-6541",
          "display": "Karl Ron Costa"
        },
        "context": {
          "reference": "Encounter/Encounter-4561",
          "display": "DRR_Encounter"
        },
        "effectiveDateTime": "2017-11-23T00:00:00-05:00",
        "performer": [
          {
            "reference": "Practitioner/Practitioner-2518",
            "display": "Jane Rosemary Saunders MD"
          }
        ],
        "valueQuantity": {
          "value": 0.0,
          "unit": "score"
        }
      },
      "request": {
        "method": "PUT",
        "url": "http://localhost:8080/cqf-ruler/baseDstu3/Observation/Observation-698440"
      }
    },
    {
      "fullUrl": "http://localhost:8080/cqf-ruler/baseDstu3/DiagnosticReport/DiagnosticReport-698441",
      "resource": {
        "resourceType": "DiagnosticReport",
        "id": "DiagnosticReport-698441",
        "meta": {
          "profile": [
            "http://hl7.org/fhir/us/hedis/StructureDefinition/hedis-diagnosticreport"
          ]
        },
        "status": "final",
        "category": {
          "coding": [
            {
              "system": "http://hl7.org/fhir/ValueSet/diagnostic-service-sections",
              "code": "OTH",
              "display": "Other"
            }
          ]
        },
        "code": {
          "coding": [
            {
              "system": "http://hl7.org/fhir/sid/icd-10-cm",
              "code": "F33.2",
              "display": "[F33.2] Major depressive disorder, recurrent severe without psychotic features"
            }
          ]
        },
        "subject": {
          "reference": "Patient/Patient-6541",
          "display": "Karl Ron Costa"
        },
        "context": {
          "reference": "Encounter/Encounter-4561",
          "display": "DRR_Encounter"
        },
        "effectivePeriod": {
          "start": "2017-11-23T00:00:00-05:00",
          "end": "2017-11-23T00:00:00-05:00"
        },
        "issued": "2017-11-23T00:00:00.000-05:00"
      },
      "request": {
        "method": "PUT",
        "url": "http://localhost:8080/cqf-ruler/baseDstu3/DiagnosticReport/DiagnosticReport-698441"
      }
    },
    {
      "fullUrl": "http://localhost:8080/cqf-ruler/baseDstu3/Observation/Observation-698444",
      "resource": {
        "resourceType": "Observation",
        "id": "Observation-698444",
        "status": "final",
        "code": {
          "coding": [
            {
              "system": "http://loinc.org",
              "code": "8302-2",
              "display": "Height"
            }
          ]
        },
        "subject": {
          "reference": "Patient/Patient-6541",
          "display": "Karl Ron Costa"
        },
        "context": {
          "reference": "Encounter/Encounter-4561",
          "display": "DRR_Encounter"
        },
        "effectiveDateTime": "2017-11-23T00:00:00-05:00",
        "performer": [
          {
            "reference": "Practitioner/Practitioner-2518",
            "display": "Jane Rosemary Saunders MD"
          }
        ],
        "valueQuantity": {
          "value": 181.7,
          "unit": "cm"
        }
      },
      "request": {
        "method": "PUT",
        "url": "http://localhost:8080/cqf-ruler/baseDstu3/Observation/Observation-698444"
      }
    },
    {
      "fullUrl": "http://localhost:8080/cqf-ruler/baseDstu3/Observation/Observation-698445",
      "resource": {
        "resourceType": "Observation",
        "id": "Observation-698445",
        "status": "final",
        "code": {
          "coding": [
            {
              "system": "http://loinc.org",
              "code": "29463-7",
              "display": "Weight"
            }
          ]
        },
        "subject": {
          "reference": "Patient/Patient-6541",
          "display": "Karl Ron Costa"
        },
        "context": {
          "reference": "Encounter/Encounter-4561",
          "display": "DRR_Encounter"
        },
        "effectiveDateTime": "2017-11-23T00:00:00-05:00",
        "performer": [
          {
            "reference": "Practitioner/Practitioner-2518",
            "display": "Jane Rosemary Saunders MD"
          }
        ],
        "valueQuantity": {
          "value": 71.95394985597979,
          "unit": "kg"
        }
      },
      "request": {
        "method": "PUT",
        "url": "http://localhost:8080/cqf-ruler/baseDstu3/Observation/Observation-698445"
      }
    },
    {
      "fullUrl": "http://localhost:8080/cqf-ruler/baseDstu3/Observation/Observation-698446",
      "resource": {
        "resourceType": "Observation",
        "id": "Observation-698446",
        "status": "final",
        "code": {
          "coding": [
            {
              "system": "http://loinc.org",
              "code": "39156-5",
              "display": "BMI"
            }
          ]
        },
        "subject": {
          "reference": "Patient/Patient-6541",
          "display": "Karl Ron Costa"
        },
        "context": {
          "reference": "Encounter/Encounter-4561",
          "display": "DRR_Encounter"
        },
        "effectiveDateTime": "2017-11-23T00:00:00-05:00",
        "performer": [
          {
            "reference": "Practitioner/Practitioner-2518",
            "display": "Jane Rosemary Saunders MD"
          }
        ],
        "valueQuantity": {
          "value": 21.794393334637732,
          "unit": "kg/m2"
        }
      },
      "request": {
        "method": "PUT",
        "url": "http://localhost:8080/cqf-ruler/baseDstu3/Observation/Observation-698446"
      }
    },
    {
      "fullUrl": "http://localhost:8080/cqf-ruler/baseDstu3/Observation/Observation-698447",
      "resource": {
        "resourceType": "Observation",
        "id": "Observation-698447",
        "status": "final",
        "code": {
          "coding": [
            {
              "system": "http://loinc.org",
              "code": "8310-5",
              "display": "Temperature"
            }
          ]
        },
        "subject": {
          "reference": "Patient/Patient-6541",
          "display": "Karl Ron Costa"
        },
        "context": {
          "reference": "Encounter/Encounter-4561",
          "display": "DRR_Encounter"
        },
        "effectiveDateTime": "2017-11-23T00:00:00-05:00",
        "performer": [
          {
            "reference": "Practitioner/Practitioner-2518",
            "display": "Jane Rosemary Saunders MD"
          }
        ],
        "valueQuantity": {
          "value": 37.0,
          "unit": "C"
        }
      },
      "request": {
        "method": "PUT",
        "url": "http://localhost:8080/cqf-ruler/baseDstu3/Observation/Observation-698447"
      }
    },
    {
      "fullUrl": "http://localhost:8080/cqf-ruler/baseDstu3/Observation/Observation-698448",
      "resource": {
        "resourceType": "Observation",
        "id": "Observation-698448",
        "status": "final",
        "code": {
          "coding": [
            {
              "system": "http://loinc.org",
              "code": "8459-0",
              "display": "Systolic Blood Pressure"
            }
          ]
        },
        "subject": {
          "reference": "Patient/Patient-6541",
          "display": "Karl Ron Costa"
        },
        "context": {
          "reference": "Encounter/Encounter-4561",
          "display": "DRR_Encounter"
        },
        "effectiveDateTime": "2017-11-23T00:00:00-05:00",
        "performer": [
          {
            "reference": "Practitioner/Practitioner-2518",
            "display": "Jane Rosemary Saunders MD"
          }
        ],
        "valueQuantity": {
          "value": 150.7190562034293,
          "unit": "mmHg"
        }
      },
      "request": {
        "method": "PUT",
        "url": "http://localhost:8080/cqf-ruler/baseDstu3/Observation/Observation-698448"
      }
    },
    {
      "fullUrl": "http://localhost:8080/cqf-ruler/baseDstu3/Observation/Observation-698449",
      "resource": {
        "resourceType": "Observation",
        "id": "Observation-698449",
        "status": "final",
        "code": {
          "coding": [
            {
              "system": "http://loinc.org",
              "code": "8453-3",
              "display": "Diastolic Blood Pressure"
            }
          ]
        },
        "subject": {
          "reference": "Patient/Patient-6541",
          "display": "Karl Ron Costa"
        },
        "context": {
          "reference": "Encounter/Encounter-4561",
          "display": "DRR_Encounter"
        },
        "effectiveDateTime": "2017-11-23T00:00:00-05:00",
        "performer": [
          {
            "reference": "Practitioner/Practitioner-2518",
            "display": "Jane Rosemary Saunders MD"
          }
        ],
        "valueQuantity": {
          "value": 96.8340235372303,
          "unit": "mmHg"
        }
      },
      "request": {
        "method": "PUT",
        "url": "http://localhost:8080/cqf-ruler/baseDstu3/Observation/Observation-698449"
      }
    },
    {
      "fullUrl": "http://localhost:8080/cqf-ruler/baseDstu3/DiagnosticReport/DiagnosticReport-698443",
      "resource": {
        "resourceType": "DiagnosticReport",
        "id": "DiagnosticReport-698443",
        "meta": {
          "profile": [
            "http://hl7.org/fhir/us/hedis/StructureDefinition/hedis-diagnosticreport"
          ]
        },
        "status": "final",
        "category": {
          "coding": [
            {
              "system": "http://hl7.org/fhir/ValueSet/diagnostic-service-sections",
              "code": "LAB",
              "display": "Laboratory"
            }
          ]
        },
        "code": {
          "coding": [
            {
              "system": "http://loinc.org",
              "code": "8716-3",
              "display": "Vital Signs Panel"
            }
          ]
        },
        "subject": {
          "reference": "Patient/Patient-6541",
          "display": "Karl Ron Costa"
        },
        "context": {
          "reference": "Encounter/Encounter-4561",
          "display": "DRR_Encounter"
        },
        "effectivePeriod": {
          "start": "2017-11-23T00:00:00-05:00",
          "end": "2017-11-23T00:00:00-05:00"
        },
        "issued": "2017-11-23T00:00:00.000-05:00",
        "result": [
          {
            "reference": "Observation/Observation-698444",
            "display": "Height"
          },
          {
            "reference": "Observation/Observation-698445",
            "display": "Weight"
          },
          {
            "reference": "Observation/Observation-698446",
            "display": "BMI"
          },
          {
            "reference": "Observation/Observation-698447",
            "display": "Temperature"
          },
          {
            "reference": "Observation/Observation-698448",
            "display": "Systolic Blood Pressure"
          },
          {
            "reference": "Observation/Observation-698449",
            "display": "Diastolic Blood Pressure"
          }
        ]
      },
      "request": {
        "method": "PUT",
        "url": "http://localhost:8080/cqf-ruler/baseDstu3/DiagnosticReport/DiagnosticReport-698443"
      }
    }
  ]
}