{
  "resourceType": "Bundle",
  "id": "Karl Ron Costa-6541-Encounter-899",
  "type": "transaction",
  "entry": [
    {
      "fullUrl": "http://localhost:8080/cqf-ruler/baseDstu3/Encounter/Encounter-899",
      "resource": {
        "resourceType": "Encounter",
        "id": "Encounter-899",
        "status": "finished",
        "class": {
          "system": "http://hl7.org/fhir/encounter-class",
          "code": "outpatient",
          "display": "Inpatient"
        },
        "subject": {
          "reference": "Patient/Patient-6541",
          "display": "Karl Ron Costa"
        },
        "participant": [
          {
            "period": {
              "start": "1996-08-18T01:00:00-04:00",
              "end": "1996-08-18T01:00:00-04:00"
            },
            "individual": {
              "reference": "Practitioner/Practitioner-2518",
              "display": "Jane Rosemary Saunders MD"
            }
          }
        ],
        "period": {
          "start": "1996-08-18T01:00:00-04:00",
          "end": "1996-08-18T01:00:00-04:00"
        },
        "location": [
          {
            "location": {
              "reference": "Location/Location-1103",
              "display": "Acme Medical Center"
            }
          }
        ],
        "serviceProvider": {
          "reference": "Organization/Organization-1103",
          "display": "Acme Medical Center"
        }
      },
      "request": {
        "method": "PUT",
        "url": "http://localhost:8080/cqf-ruler/baseDstu3/Encounter/Encounter-899"
      }
    },
    {
      "fullUrl": "http://localhost:8080/cqf-ruler/baseDstu3/Immunization/Immunization-145481",
      "resource": {
        "resourceType": "Immunization",
        "id": "Immunization-145481",
        "status": "completed",
        "notGiven": false,
        "vaccineCode": {
          "coding": [
            {
              "system": "http://hl7.org/fhir/sid/cvx",
              "code": "140",
              "display": "Influenza, seasonal, injectable, preservative free"
            }
          ]
        },
        "patient": {
          "reference": "Patient/Patient-6541",
          "display": "Karl Ron Costa"
        },
        "date": "1996-08-18T01:00:00-04:00",
        "primarySource": true,
        "location": {
          "reference": "Location/Location-1103",
          "display": "Acme Medical Center"
        },
        "practitioner": [
          {
            "actor": {
              "reference": "Practitioner/Practitioner-2518",
              "display": "Jane Rosemary Saunders MD"
            }
          }
        ]
      },
      "request": {
        "method": "PUT",
        "url": "http://localhost:8080/cqf-ruler/baseDstu3/Immunization/Immunization-145481"
      }
    },
    {
      "fullUrl": "http://localhost:8080/cqf-ruler/baseDstu3/Observation/Observation-165069",
      "resource": {
        "resourceType": "Observation",
        "id": "Observation-165069",
        "status": "final",
        "code": {
          "coding": [
            {
              "system": "http://loinc.org",
              "code": "8302-2",
              "display": "Height"
            }
          ]
        },
        "subject": {
          "reference": "Patient/Patient-6541",
          "display": "Karl Ron Costa"
        },
        "context": {
          "reference": "Encounter/Encounter-899",
          "display": "Acme Medical Center"
        },
        "effectiveDateTime": "1996-08-18T01:00:00-04:00",
        "performer": [
          {
            "reference": "Practitioner/Practitioner-2518",
            "display": "Jane Rosemary Saunders MD"
          }
        ],
        "valueQuantity": {
          "value": 176.6,
          "unit": "cm"
        }
      },
      "request": {
        "method": "PUT",
        "url": "http://localhost:8080/cqf-ruler/baseDstu3/Observation/Observation-165069"
      }
    },
    {
      "fullUrl": "http://localhost:8080/cqf-ruler/baseDstu3/Observation/Observation-165070",
      "resource": {
        "resourceType": "Observation",
        "id": "Observation-165070",
        "status": "final",
        "code": {
          "coding": [
            {
              "system": "http://loinc.org",
              "code": "29463-7",
              "display": "Weight"
            }
          ]
        },
        "subject": {
          "reference": "Patient/Patient-6541",
          "display": "Karl Ron Costa"
        },
        "context": {
          "reference": "Encounter/Encounter-899",
          "display": "Acme Medical Center"
        },
        "effectiveDateTime": "1996-08-18T01:00:00-04:00",
        "performer": [
          {
            "reference": "Practitioner/Practitioner-2518",
            "display": "Jane Rosemary Saunders MD"
          }
        ],
        "valueQuantity": {
          "value": 77.7,
          "unit": "kg"
        }
      },
      "request": {
        "method": "PUT",
        "url": "http://localhost:8080/cqf-ruler/baseDstu3/Observation/Observation-165070"
      }
    },
    {
      "fullUrl": "http://localhost:8080/cqf-ruler/baseDstu3/Observation/Observation-165071",
      "resource": {
        "resourceType": "Observation",
        "id": "Observation-165071",
        "status": "final",
        "code": {
          "coding": [
            {
              "system": "http://loinc.org",
              "code": "39156-5",
              "display": "BMI"
            }
          ]
        },
        "subject": {
          "reference": "Patient/Patient-6541",
          "display": "Karl Ron Costa"
        },
        "context": {
          "reference": "Encounter/Encounter-899",
          "display": "Acme Medical Center"
        },
        "effectiveDateTime": "1996-08-18T01:00:00-04:00",
        "performer": [
          {
            "reference": "Practitioner/Practitioner-2518",
            "display": "Jane Rosemary Saunders MD"
          }
        ],
        "valueQuantity": {
          "value": 24.913779724992917,
          "unit": "kg/m2"
        }
      },
      "request": {
        "method": "PUT",
        "url": "http://localhost:8080/cqf-ruler/baseDstu3/Observation/Observation-165071"
      }
    },
    {
      "fullUrl": "http://localhost:8080/cqf-ruler/baseDstu3/Observation/Observation-165072",
      "resource": {
        "resourceType": "Observation",
        "id": "Observation-165072",
        "status": "final",
        "code": {
          "coding": [
            {
              "system": "http://loinc.org",
              "code": "8310-5",
              "display": "Temperature"
            }
          ]
        },
        "subject": {
          "reference": "Patient/Patient-6541",
          "display": "Karl Ron Costa"
        },
        "context": {
          "reference": "Encounter/Encounter-899",
          "display": "Acme Medical Center"
        },
        "effectiveDateTime": "1996-08-18T01:00:00-04:00",
        "performer": [
          {
            "reference": "Practitioner/Practitioner-2518",
            "display": "Jane Rosemary Saunders MD"
          }
        ],
        "valueQuantity": {
          "value": 37.0,
          "unit": "C"
        }
      },
      "request": {
        "method": "PUT",
        "url": "http://localhost:8080/cqf-ruler/baseDstu3/Observation/Observation-165072"
      }
    },
    {
      "fullUrl": "http://localhost:8080/cqf-ruler/baseDstu3/Observation/Observation-165073",
      "resource": {
        "resourceType": "Observation",
        "id": "Observation-165073",
        "status": "final",
        "code": {
          "coding": [
            {
              "system": "http://loinc.org",
              "code": "8459-0",
              "display": "Systolic Blood Pressure"
            }
          ]
        },
        "subject": {
          "reference": "Patient/Patient-6541",
          "display": "Karl Ron Costa"
        },
        "context": {
          "reference": "Encounter/Encounter-899",
          "display": "Acme Medical Center"
        },
        "effectiveDateTime": "1996-08-18T01:00:00-04:00",
        "performer": [
          {
            "reference": "Practitioner/Practitioner-2518",
            "display": "Jane Rosemary Saunders MD"
          }
        ],
        "valueQuantity": {
          "value": 110.88634107783402,
          "unit": "mmHg"
        }
      },
      "request": {
        "method": "PUT",
        "url": "http://localhost:8080/cqf-ruler/baseDstu3/Observation/Observation-165073"
      }
    },
    {
      "fullUrl": "http://localhost:8080/cqf-ruler/baseDstu3/Observation/Observation-165074",
      "resource": {
        "resourceType": "Observation",
        "id": "Observation-165074",
        "status": "final",
        "code": {
          "coding": [
            {
              "system": "http://loinc.org",
              "code": "8453-3",
              "display": "Diastolic Blood Pressure"
            }
          ]
        },
        "subject": {
          "reference": "Patient/Patient-6541",
          "display": "Karl Ron Costa"
        },
        "context": {
          "reference": "Encounter/Encounter-899",
          "display": "Acme Medical Center"
        },
        "effectiveDateTime": "1996-08-18T01:00:00-04:00",
        "performer": [
          {
            "reference": "Practitioner/Practitioner-2518",
            "display": "Jane Rosemary Saunders MD"
          }
        ],
        "valueQuantity": {
          "value": 70.90284931572675,
          "unit": "mmHg"
        }
      },
      "request": {
        "method": "PUT",
        "url": "http://localhost:8080/cqf-ruler/baseDstu3/Observation/Observation-165074"
      }
    },
    {
      "fullUrl": "http://localhost:8080/cqf-ruler/baseDstu3/DiagnosticReport/DiagnosticReport-165068",
      "resource": {
        "resourceType": "DiagnosticReport",
        "id": "DiagnosticReport-165068",
        "status": "final",
        "code": {
          "coding": [
            {
              "system": "http://loinc.org",
              "code": "8716-3",
              "display": "Vital Signs Panel"
            }
          ]
        },
        "subject": {
          "reference": "Patient/Patient-6541",
          "display": "Karl Ron Costa"
        },
        "context": {
          "reference": "Encounter/Encounter-899",
          "display": "Acme Medical Center"
        },
        "effectivePeriod": {
          "start": "1996-08-18T01:00:00-04:00",
          "end": "1996-08-18T01:00:00-04:00"
        },
        "issued": "1996-08-18T01:00:00.000-04:00",
        "result": [
          {
            "reference": "Observation/Observation-165069",
            "display": "Height"
          },
          {
            "reference": "Observation/Observation-165070",
            "display": "Weight"
          },
          {
            "reference": "Observation/Observation-165071",
            "display": "BMI"
          },
          {
            "reference": "Observation/Observation-165072",
            "display": "Temperature"
          },
          {
            "reference": "Observation/Observation-165073",
            "display": "Systolic Blood Pressure"
          },
          {
            "reference": "Observation/Observation-165074",
            "display": "Diastolic Blood Pressure"
          }
        ]
      },
      "request": {
        "method": "PUT",
        "url": "http://localhost:8080/cqf-ruler/baseDstu3/DiagnosticReport/DiagnosticReport-165068"
      }
    }
  ]
}