{
  "resourceType": "Bundle",
  "id": "Michael Jesus Gonzales-1133-Encounter-1061",
  "type": "transaction",
  "entry": [
    {
      "fullUrl": "http://localhost:8080/cqf-ruler/baseDstu3/Encounter/Encounter-1061",
      "resource": {
        "resourceType": "Encounter",
        "id": "Encounter-1061",
        "status": "finished",
        "class": {
          "system": "http://hl7.org/fhir/encounter-class",
          "code": "outpatient",
          "display": "Inpatient"
        },
        "subject": {
          "reference": "Patient/Patient-1133",
          "display": "Michael Jesus Gonzales"
        },
        "participant": [
          {
            "period": {
              "start": "1999-01-28T02:00:00-05:00",
              "end": "1999-01-28T02:00:00-05:00"
            },
            "individual": {
              "reference": "Practitioner/Practitioner-2529",
              "display": "Stanley Floyd Nielsen MD"
            }
          }
        ],
        "period": {
          "start": "1999-01-28T02:00:00-05:00",
          "end": "1999-01-28T02:00:00-05:00"
        },
        "location": [
          {
            "location": {
              "reference": "Location/Location-1102",
              "display": "Pediatric and Adult Medicine"
            }
          }
        ],
        "serviceProvider": {
          "reference": "Organization/Organization-1102",
          "display": "Pediatric and Adult Medicine"
        }
      },
      "request": {
        "method": "PUT",
        "url": "http://localhost:8080/cqf-ruler/baseDstu3/Encounter/Encounter-1061"
      }
    },
    {
      "fullUrl": "http://localhost:8080/cqf-ruler/baseDstu3/Immunization/Immunization-193291",
      "resource": {
        "resourceType": "Immunization",
        "id": "Immunization-193291",
        "status": "completed",
        "notGiven": false,
        "vaccineCode": {
          "coding": [
            {
              "system": "http://hl7.org/fhir/sid/cvx",
              "code": "140",
              "display": "Influenza, seasonal, injectable, preservative free"
            }
          ]
        },
        "patient": {
          "reference": "Patient/Patient-1133",
          "display": "Michael Jesus Gonzales"
        },
        "date": "1999-01-28T02:00:00-05:00",
        "primarySource": true,
        "location": {
          "reference": "Location/Location-1102",
          "display": "Pediatric and Adult Medicine"
        },
        "practitioner": [
          {
            "actor": {
              "reference": "Practitioner/Practitioner-2529",
              "display": "Stanley Floyd Nielsen MD"
            }
          }
        ]
      },
      "request": {
        "method": "PUT",
        "url": "http://localhost:8080/cqf-ruler/baseDstu3/Immunization/Immunization-193291"
      }
    },
    {
      "fullUrl": "http://localhost:8080/cqf-ruler/baseDstu3/Observation/Observation-213494",
      "resource": {
        "resourceType": "Observation",
        "id": "Observation-213494",
        "status": "final",
        "code": {
          "coding": [
            {
              "system": "http://loinc.org",
              "code": "8302-2",
              "display": "Height"
            }
          ]
        },
        "subject": {
          "reference": "Patient/Patient-1133",
          "display": "Michael Jesus Gonzales"
        },
        "context": {
          "reference": "Encounter/Encounter-1061",
          "display": "Pediatric and Adult Medicine"
        },
        "effectiveDateTime": "1999-01-28T02:00:00-05:00",
        "performer": [
          {
            "reference": "Practitioner/Practitioner-2529",
            "display": "Stanley Floyd Nielsen MD"
          }
        ],
        "valueQuantity": {
          "value": 124.6,
          "unit": "cm"
        }
      },
      "request": {
        "method": "PUT",
        "url": "http://localhost:8080/cqf-ruler/baseDstu3/Observation/Observation-213494"
      }
    },
    {
      "fullUrl": "http://localhost:8080/cqf-ruler/baseDstu3/Observation/Observation-213495",
      "resource": {
        "resourceType": "Observation",
        "id": "Observation-213495",
        "status": "final",
        "code": {
          "coding": [
            {
              "system": "http://loinc.org",
              "code": "29463-7",
              "display": "Weight"
            }
          ]
        },
        "subject": {
          "reference": "Patient/Patient-1133",
          "display": "Michael Jesus Gonzales"
        },
        "context": {
          "reference": "Encounter/Encounter-1061",
          "display": "Pediatric and Adult Medicine"
        },
        "effectiveDateTime": "1999-01-28T02:00:00-05:00",
        "performer": [
          {
            "reference": "Practitioner/Practitioner-2529",
            "display": "Stanley Floyd Nielsen MD"
          }
        ],
        "valueQuantity": {
          "value": 0.0,
          "unit": "kg"
        }
      },
      "request": {
        "method": "PUT",
        "url": "http://localhost:8080/cqf-ruler/baseDstu3/Observation/Observation-213495"
      }
    },
    {
      "fullUrl": "http://localhost:8080/cqf-ruler/baseDstu3/Observation/Observation-213496",
      "resource": {
        "resourceType": "Observation",
        "id": "Observation-213496",
        "status": "final",
        "code": {
          "coding": [
            {
              "system": "http://loinc.org",
              "code": "39156-5",
              "display": "BMI"
            }
          ]
        },
        "subject": {
          "reference": "Patient/Patient-1133",
          "display": "Michael Jesus Gonzales"
        },
        "context": {
          "reference": "Encounter/Encounter-1061",
          "display": "Pediatric and Adult Medicine"
        },
        "effectiveDateTime": "1999-01-28T02:00:00-05:00",
        "performer": [
          {
            "reference": "Practitioner/Practitioner-2529",
            "display": "Stanley Floyd Nielsen MD"
          }
        ],
        "valueQuantity": {
          "value": 0.0,
          "unit": "kg/m2"
        }
      },
      "request": {
        "method": "PUT",
        "url": "http://localhost:8080/cqf-ruler/baseDstu3/Observation/Observation-213496"
      }
    },
    {
      "fullUrl": "http://localhost:8080/cqf-ruler/baseDstu3/Observation/Observation-213497",
      "resource": {
        "resourceType": "Observation",
        "id": "Observation-213497",
        "status": "final",
        "code": {
          "coding": [
            {
              "system": "http://loinc.org",
              "code": "8310-5",
              "display": "Temperature"
            }
          ]
        },
        "subject": {
          "reference": "Patient/Patient-1133",
          "display": "Michael Jesus Gonzales"
        },
        "context": {
          "reference": "Encounter/Encounter-1061",
          "display": "Pediatric and Adult Medicine"
        },
        "effectiveDateTime": "1999-01-28T02:00:00-05:00",
        "performer": [
          {
            "reference": "Practitioner/Practitioner-2529",
            "display": "Stanley Floyd Nielsen MD"
          }
        ],
        "valueQuantity": {
          "value": 37.0,
          "unit": "C"
        }
      },
      "request": {
        "method": "PUT",
        "url": "http://localhost:8080/cqf-ruler/baseDstu3/Observation/Observation-213497"
      }
    },
    {
      "fullUrl": "http://localhost:8080/cqf-ruler/baseDstu3/Observation/Observation-213498",
      "resource": {
        "resourceType": "Observation",
        "id": "Observation-213498",
        "status": "final",
        "code": {
          "coding": [
            {
              "system": "http://loinc.org",
              "code": "8459-0",
              "display": "Systolic Blood Pressure"
            }
          ]
        },
        "subject": {
          "reference": "Patient/Patient-1133",
          "display": "Michael Jesus Gonzales"
        },
        "context": {
          "reference": "Encounter/Encounter-1061",
          "display": "Pediatric and Adult Medicine"
        },
        "effectiveDateTime": "1999-01-28T02:00:00-05:00",
        "performer": [
          {
            "reference": "Practitioner/Practitioner-2529",
            "display": "Stanley Floyd Nielsen MD"
          }
        ],
        "valueQuantity": {
          "value": 102.44520793035082,
          "unit": "mmHg"
        }
      },
      "request": {
        "method": "PUT",
        "url": "http://localhost:8080/cqf-ruler/baseDstu3/Observation/Observation-213498"
      }
    },
    {
      "fullUrl": "http://localhost:8080/cqf-ruler/baseDstu3/Observation/Observation-213499",
      "resource": {
        "resourceType": "Observation",
        "id": "Observation-213499",
        "status": "final",
        "code": {
          "coding": [
            {
              "system": "http://loinc.org",
              "code": "8453-3",
              "display": "Diastolic Blood Pressure"
            }
          ]
        },
        "subject": {
          "reference": "Patient/Patient-1133",
          "display": "Michael Jesus Gonzales"
        },
        "context": {
          "reference": "Encounter/Encounter-1061",
          "display": "Pediatric and Adult Medicine"
        },
        "effectiveDateTime": "1999-01-28T02:00:00-05:00",
        "performer": [
          {
            "reference": "Practitioner/Practitioner-2529",
            "display": "Stanley Floyd Nielsen MD"
          }
        ],
        "valueQuantity": {
          "value": 80.95212927042756,
          "unit": "mmHg"
        }
      },
      "request": {
        "method": "PUT",
        "url": "http://localhost:8080/cqf-ruler/baseDstu3/Observation/Observation-213499"
      }
    },
    {
      "fullUrl": "http://localhost:8080/cqf-ruler/baseDstu3/DiagnosticReport/DiagnosticReport-213493",
      "resource": {
        "resourceType": "DiagnosticReport",
        "id": "DiagnosticReport-213493",
        "status": "final",
        "code": {
          "coding": [
            {
              "system": "http://loinc.org",
              "code": "8716-3",
              "display": "Vital Signs Panel"
            }
          ]
        },
        "subject": {
          "reference": "Patient/Patient-1133",
          "display": "Michael Jesus Gonzales"
        },
        "context": {
          "reference": "Encounter/Encounter-1061",
          "display": "Pediatric and Adult Medicine"
        },
        "effectivePeriod": {
          "start": "1999-01-28T02:00:00-05:00",
          "end": "1999-01-28T02:00:00-05:00"
        },
        "issued": "1999-01-28T02:00:00.000-05:00",
        "result": [
          {
            "reference": "Observation/Observation-213494",
            "display": "Height"
          },
          {
            "reference": "Observation/Observation-213495",
            "display": "Weight"
          },
          {
            "reference": "Observation/Observation-213496",
            "display": "BMI"
          },
          {
            "reference": "Observation/Observation-213497",
            "display": "Temperature"
          },
          {
            "reference": "Observation/Observation-213498",
            "display": "Systolic Blood Pressure"
          },
          {
            "reference": "Observation/Observation-213499",
            "display": "Diastolic Blood Pressure"
          }
        ]
      },
      "request": {
        "method": "PUT",
        "url": "http://localhost:8080/cqf-ruler/baseDstu3/DiagnosticReport/DiagnosticReport-213493"
      }
    }
  ]
}