{
  "resourceType": "Bundle",
  "id": "Michael-Jesus-Gonzales-1133-Encounter-1863",
  "type": "transaction",
  "entry": [
    {
      "fullUrl": "http://localhost:8080/cqf-ruler/baseDstu3/Encounter/Encounter-1863",
      "resource": {
        "resourceType": "Encounter",
        "id": "Encounter-1863",
        "status": "finished",
        "class": {
          "system": "http://hl7.org/fhir/encounter-class",
          "code": "outpatient",
          "display": "Inpatient"
        },
        "subject": {
          "reference": "Patient/Patient-1133",
          "display": "Michael Jesus Gonzales"
        },
        "participant": [
          {
            "period": {
              "start": "2008-06-20T00:00:00-04:00",
              "end": "2008-06-20T00:00:00-04:00"
            },
            "individual": {
              "reference": "Practitioner/Practitioner-2529",
              "display": "Stanley Floyd Nielsen MD"
            }
          }
        ],
        "period": {
          "start": "2008-06-20T00:00:00-04:00",
          "end": "2008-06-20T00:00:00-04:00"
        },
        "location": [
          {
            "location": {
              "reference": "Location/Location-1102",
              "display": "Pediatric and Adult Medicine"
            }
          }
        ],
        "serviceProvider": {
          "reference": "Organization/Organization-1102",
          "display": "Pediatric and Adult Medicine"
        }
      },
      "request": {
        "method": "PUT",
        "url": "http://localhost:8080/cqf-ruler/baseDstu3/Encounter/Encounter-1863"
      }
    },
    {
      "fullUrl": "http://localhost:8080/cqf-ruler/baseDstu3/Immunization/Immunization-407350",
      "resource": {
        "resourceType": "Immunization",
        "id": "Immunization-407350",
        "status": "completed",
        "notGiven": false,
        "vaccineCode": {
          "coding": [
            {
              "system": "http://hl7.org/fhir/sid/cvx",
              "code": "140",
              "display": "Influenza, seasonal, injectable, preservative free"
            }
          ]
        },
        "patient": {
          "reference": "Patient/Patient-1133",
          "display": "Michael Jesus Gonzales"
        },
        "date": "2008-06-20T00:00:00-04:00",
        "primarySource": true,
        "location": {
          "reference": "Location/Location-1102",
          "display": "Pediatric and Adult Medicine"
        },
        "practitioner": [
          {
            "actor": {
              "reference": "Practitioner/Practitioner-2529",
              "display": "Stanley Floyd Nielsen MD"
            }
          }
        ]
      },
      "request": {
        "method": "PUT",
        "url": "http://localhost:8080/cqf-ruler/baseDstu3/Immunization/Immunization-407350"
      }
    },
    {
      "fullUrl": "http://localhost:8080/cqf-ruler/baseDstu3/Immunization/Immunization-407351",
      "resource": {
        "resourceType": "Immunization",
        "id": "Immunization-407351",
        "status": "completed",
        "notGiven": false,
        "vaccineCode": {
          "coding": [
            {
              "system": "http://hl7.org/fhir/sid/cvx",
              "code": "114",
              "display": "meningococcal MCV4P"
            }
          ]
        },
        "patient": {
          "reference": "Patient/Patient-1133",
          "display": "Michael Jesus Gonzales"
        },
        "date": "2008-06-20T00:00:00-04:00",
        "primarySource": true,
        "location": {
          "reference": "Location/Location-1102",
          "display": "Pediatric and Adult Medicine"
        },
        "practitioner": [
          {
            "actor": {
              "reference": "Practitioner/Practitioner-2529",
              "display": "Stanley Floyd Nielsen MD"
            }
          }
        ]
      },
      "request": {
        "method": "PUT",
        "url": "http://localhost:8080/cqf-ruler/baseDstu3/Immunization/Immunization-407351"
      }
    },
    {
      "fullUrl": "http://localhost:8080/cqf-ruler/baseDstu3/Observation/Observation-430258",
      "resource": {
        "resourceType": "Observation",
        "id": "Observation-430258",
        "status": "final",
        "code": {
          "coding": [
            {
              "system": "http://loinc.org",
              "code": "8480-6",
              "display": "Systolic blood pressure"
            }
          ]
        },
        "subject": {
          "reference": "Patient/Patient-1133",
          "display": "Michael Jesus Gonzales"
        },
        "context": {
          "reference": "Encounter/Encounter-1863",
          "display": "Wellness Visit"
        },
        "effectivePeriod": {
          "start": "2008-06-20T00:00:00-04:00",
          "end": "2008-06-20T00:00:00-04:00"
        },
        "performer": [
          {
            "reference": "Practitioner/Practitioner-2529",
            "display": "Stanley Floyd Nielsen MD"
          }
        ],
        "valueQuantity": {
          "value": 172.13154942378097,
          "unit": "mmHg"
        }
      },
      "request": {
        "method": "PUT",
        "url": "http://localhost:8080/cqf-ruler/baseDstu3/Observation/Observation-430258"
      }
    },
    {
      "fullUrl": "http://localhost:8080/cqf-ruler/baseDstu3/Observation/Observation-430259",
      "resource": {
        "resourceType": "Observation",
        "id": "Observation-430259",
        "status": "final",
        "code": {
          "coding": [
            {
              "system": "http://loinc.org",
              "code": "8462-4",
              "display": "Diastolic blood pressure"
            }
          ]
        },
        "subject": {
          "reference": "Patient/Patient-1133",
          "display": "Michael Jesus Gonzales"
        },
        "context": {
          "reference": "Encounter/Encounter-1863",
          "display": "Wellness Visit"
        },
        "effectivePeriod": {
          "start": "2008-06-20T00:00:00-04:00",
          "end": "2008-06-20T00:00:00-04:00"
        },
        "performer": [
          {
            "reference": "Practitioner/Practitioner-2529",
            "display": "Stanley Floyd Nielsen MD"
          }
        ],
        "valueQuantity": {
          "value": 89.51226413060458,
          "unit": "mmHg"
        }
      },
      "request": {
        "method": "PUT",
        "url": "http://localhost:8080/cqf-ruler/baseDstu3/Observation/Observation-430259"
      }
    },
    {
      "fullUrl": "http://localhost:8080/cqf-ruler/baseDstu3/Condition/Condition-430260",
      "resource": {
        "resourceType": "Condition",
        "id": "Condition-430260",
        "clinicalStatus": "active",
        "verificationStatus": "confirmed",
        "code": {
          "coding": [
            {
              "system": "http://hl7.org/fhir/sid/icd-9-cm",
              "code": "401.9",
              "display": "Unspecified essential hypertension"
            }
          ]
        },
        "subject": {
          "reference": "Patient/Patient-1133",
          "display": "Michael Jesus Gonzales"
        },
        "context": {
          "reference": "Encounter/Encounter-1863",
          "display": "Wellness Visit"
        },
        "onsetDateTime": "2008-06-20T00:00:00-04:00",
        "assertedDate": "2008-06-20T00:00:00-04:00",
        "asserter": {
          "reference": "Practitioner/Practitioner-2529",
          "display": "Stanley Floyd Nielsen MD"
        }
      },
      "request": {
        "method": "PUT",
        "url": "http://localhost:8080/cqf-ruler/baseDstu3/Condition/Condition-430260"
      }
    },
    {
      "fullUrl": "http://localhost:8080/cqf-ruler/baseDstu3/Observation/Observation-430261",
      "resource": {
        "resourceType": "Observation",
        "id": "Observation-430261",
        "status": "final",
        "code": {
          "coding": [
            {
              "system": "http://loinc.org",
              "code": "8302-2",
              "display": "Body Height"
            }
          ]
        },
        "subject": {
          "reference": "Patient/Patient-1133",
          "display": "Michael Jesus Gonzales"
        },
        "context": {
          "reference": "Encounter/Encounter-1863",
          "display": "Wellness Visit"
        },
        "effectivePeriod": {
          "start": "2008-06-20T00:00:00-04:00",
          "end": "2008-06-20T00:00:00-04:00"
        },
        "performer": [
          {
            "reference": "Practitioner/Practitioner-2529",
            "display": "Stanley Floyd Nielsen MD"
          }
        ],
        "valueQuantity": {
          "value": 174.2,
          "unit": "cm"
        }
      },
      "request": {
        "method": "PUT",
        "url": "http://localhost:8080/cqf-ruler/baseDstu3/Observation/Observation-430261"
      }
    },
    {
      "fullUrl": "http://localhost:8080/cqf-ruler/baseDstu3/Observation/Observation-430262",
      "resource": {
        "resourceType": "Observation",
        "id": "Observation-430262",
        "status": "final",
        "code": {
          "coding": [
            {
              "system": "http://loinc.org",
              "code": "29463-7",
              "display": "Body Weight"
            }
          ]
        },
        "subject": {
          "reference": "Patient/Patient-1133",
          "display": "Michael Jesus Gonzales"
        },
        "context": {
          "reference": "Encounter/Encounter-1863",
          "display": "Wellness Visit"
        },
        "effectivePeriod": {
          "start": "2008-06-20T00:00:00-04:00",
          "end": "2008-06-20T00:00:00-04:00"
        },
        "performer": [
          {
            "reference": "Practitioner/Practitioner-2529",
            "display": "Stanley Floyd Nielsen MD"
          }
        ],
        "valueQuantity": {
          "value": 32.771196971096764,
          "unit": "kg"
        }
      },
      "request": {
        "method": "PUT",
        "url": "http://localhost:8080/cqf-ruler/baseDstu3/Observation/Observation-430262"
      }
    },
    {
      "fullUrl": "http://localhost:8080/cqf-ruler/baseDstu3/Observation/Observation-430263",
      "resource": {
        "resourceType": "Observation",
        "id": "Observation-430263",
        "status": "final",
        "code": {
          "coding": [
            {
              "system": "http://loinc.org",
              "code": "39156-5",
              "display": "Body Mass Index"
            }
          ]
        },
        "subject": {
          "reference": "Patient/Patient-1133",
          "display": "Michael Jesus Gonzales"
        },
        "context": {
          "reference": "Encounter/Encounter-1863",
          "display": "Wellness Visit"
        },
        "effectivePeriod": {
          "start": "2008-06-20T00:00:00-04:00",
          "end": "2008-06-20T00:00:00-04:00"
        },
        "performer": [
          {
            "reference": "Practitioner/Practitioner-2529",
            "display": "Stanley Floyd Nielsen MD"
          }
        ],
        "valueQuantity": {
          "value": 10.799309874860693,
          "unit": "kg/m2"
        }
      },
      "request": {
        "method": "PUT",
        "url": "http://localhost:8080/cqf-ruler/baseDstu3/Observation/Observation-430263"
      }
    },
    {
      "fullUrl": "http://localhost:8080/cqf-ruler/baseDstu3/Observation/Observation-430266",
      "resource": {
        "resourceType": "Observation",
        "id": "Observation-430266",
        "status": "final",
        "category": [
          {
            "coding": [
              {
                "system": "http://hl7.org/fhir/observation-category",
                "code": "vital-signs",
                "display": "vital-signs"
              }
            ]
          }
        ],
        "code": {
          "coding": [
            {
              "system": "http://loinc.org",
              "code": "55284-4",
              "display": "Blood Pressure"
            }
          ]
        },
        "subject": {
          "reference": "Patient/Patient-1133",
          "display": "Michael Jesus Gonzales"
        },
        "context": {
          "reference": "Encounter/Encounter-1863",
          "display": "Wellness Visit"
        },
        "effectivePeriod": {
          "start": "2008-06-20T00:00:00-04:00",
          "end": "2008-06-20T00:00:00-04:00"
        },
        "valueQuantity": {
          "value": 89.51226413060458,
          "unit": "mmHg"
        },
        "component": [
          {
            "code": {
              "coding": [
                {
                  "system": "http://loinc.org",
                  "code": "8480-6",
                  "display": "Systolic Blood Pressure"
                }
              ]
            }
          },
          {
            "code": {
              "coding": [
                {
                  "system": "http://loinc.org",
                  "code": "8462-4",
                  "display": "Diastolic Blood Pressure"
                }
              ]
            }
          }
        ]
      },
      "request": {
        "method": "PUT",
        "url": "http://localhost:8080/cqf-ruler/baseDstu3/Observation/Observation-430266"
      }
    },
    {
      "fullUrl": "http://localhost:8080/cqf-ruler/baseDstu3/Observation/Observation-430268",
      "resource": {
        "resourceType": "Observation",
        "id": "Observation-430268",
        "status": "final",
        "code": {
          "coding": [
            {
              "system": "http://loinc.org",
              "code": "8302-2",
              "display": "Height"
            }
          ]
        },
        "subject": {
          "reference": "Patient/Patient-1133",
          "display": "Michael Jesus Gonzales"
        },
        "context": {
          "reference": "Encounter/Encounter-1863",
          "display": "Wellness Visit"
        },
        "effectiveDateTime": "2008-06-20T00:00:00-04:00",
        "performer": [
          {
            "reference": "Practitioner/Practitioner-2529",
            "display": "Stanley Floyd Nielsen MD"
          }
        ],
        "valueQuantity": {
          "value": 174.2,
          "unit": "cm"
        }
      },
      "request": {
        "method": "PUT",
        "url": "http://localhost:8080/cqf-ruler/baseDstu3/Observation/Observation-430268"
      }
    },
    {
      "fullUrl": "http://localhost:8080/cqf-ruler/baseDstu3/Observation/Observation-430269",
      "resource": {
        "resourceType": "Observation",
        "id": "Observation-430269",
        "status": "final",
        "code": {
          "coding": [
            {
              "system": "http://loinc.org",
              "code": "29463-7",
              "display": "Weight"
            }
          ]
        },
        "subject": {
          "reference": "Patient/Patient-1133",
          "display": "Michael Jesus Gonzales"
        },
        "context": {
          "reference": "Encounter/Encounter-1863",
          "display": "Wellness Visit"
        },
        "effectiveDateTime": "2008-06-20T00:00:00-04:00",
        "performer": [
          {
            "reference": "Practitioner/Practitioner-2529",
            "display": "Stanley Floyd Nielsen MD"
          }
        ],
        "valueQuantity": {
          "value": 32.771196971096764,
          "unit": "kg"
        }
      },
      "request": {
        "method": "PUT",
        "url": "http://localhost:8080/cqf-ruler/baseDstu3/Observation/Observation-430269"
      }
    },
    {
      "fullUrl": "http://localhost:8080/cqf-ruler/baseDstu3/Observation/Observation-430270",
      "resource": {
        "resourceType": "Observation",
        "id": "Observation-430270",
        "status": "final",
        "code": {
          "coding": [
            {
              "system": "http://loinc.org",
              "code": "39156-5",
              "display": "BMI"
            }
          ]
        },
        "subject": {
          "reference": "Patient/Patient-1133",
          "display": "Michael Jesus Gonzales"
        },
        "context": {
          "reference": "Encounter/Encounter-1863",
          "display": "Wellness Visit"
        },
        "effectiveDateTime": "2008-06-20T00:00:00-04:00",
        "performer": [
          {
            "reference": "Practitioner/Practitioner-2529",
            "display": "Stanley Floyd Nielsen MD"
          }
        ],
        "valueQuantity": {
          "value": 10.799309874860693,
          "unit": "kg/m2"
        }
      },
      "request": {
        "method": "PUT",
        "url": "http://localhost:8080/cqf-ruler/baseDstu3/Observation/Observation-430270"
      }
    },
    {
      "fullUrl": "http://localhost:8080/cqf-ruler/baseDstu3/Observation/Observation-430271",
      "resource": {
        "resourceType": "Observation",
        "id": "Observation-430271",
        "status": "final",
        "code": {
          "coding": [
            {
              "system": "http://loinc.org",
              "code": "8310-5",
              "display": "Temperature"
            }
          ]
        },
        "subject": {
          "reference": "Patient/Patient-1133",
          "display": "Michael Jesus Gonzales"
        },
        "context": {
          "reference": "Encounter/Encounter-1863",
          "display": "Wellness Visit"
        },
        "effectiveDateTime": "2008-06-20T00:00:00-04:00",
        "performer": [
          {
            "reference": "Practitioner/Practitioner-2529",
            "display": "Stanley Floyd Nielsen MD"
          }
        ],
        "valueQuantity": {
          "value": 37.0,
          "unit": "C"
        }
      },
      "request": {
        "method": "PUT",
        "url": "http://localhost:8080/cqf-ruler/baseDstu3/Observation/Observation-430271"
      }
    },
    {
      "fullUrl": "http://localhost:8080/cqf-ruler/baseDstu3/Observation/Observation-430272",
      "resource": {
        "resourceType": "Observation",
        "id": "Observation-430272",
        "status": "final",
        "code": {
          "coding": [
            {
              "system": "http://loinc.org",
              "code": "8459-0",
              "display": "Systolic Blood Pressure"
            }
          ]
        },
        "subject": {
          "reference": "Patient/Patient-1133",
          "display": "Michael Jesus Gonzales"
        },
        "context": {
          "reference": "Encounter/Encounter-1863",
          "display": "Wellness Visit"
        },
        "effectiveDateTime": "2008-06-20T00:00:00-04:00",
        "performer": [
          {
            "reference": "Practitioner/Practitioner-2529",
            "display": "Stanley Floyd Nielsen MD"
          }
        ],
        "valueQuantity": {
          "value": 172.13154942378097,
          "unit": "mmHg"
        }
      },
      "request": {
        "method": "PUT",
        "url": "http://localhost:8080/cqf-ruler/baseDstu3/Observation/Observation-430272"
      }
    },
    {
      "fullUrl": "http://localhost:8080/cqf-ruler/baseDstu3/Observation/Observation-430273",
      "resource": {
        "resourceType": "Observation",
        "id": "Observation-430273",
        "status": "final",
        "code": {
          "coding": [
            {
              "system": "http://loinc.org",
              "code": "8453-3",
              "display": "Diastolic Blood Pressure"
            }
          ]
        },
        "subject": {
          "reference": "Patient/Patient-1133",
          "display": "Michael Jesus Gonzales"
        },
        "context": {
          "reference": "Encounter/Encounter-1863",
          "display": "Wellness Visit"
        },
        "effectiveDateTime": "2008-06-20T00:00:00-04:00",
        "performer": [
          {
            "reference": "Practitioner/Practitioner-2529",
            "display": "Stanley Floyd Nielsen MD"
          }
        ],
        "valueQuantity": {
          "value": 89.51226413060458,
          "unit": "mmHg"
        }
      },
      "request": {
        "method": "PUT",
        "url": "http://localhost:8080/cqf-ruler/baseDstu3/Observation/Observation-430273"
      }
    },
    {
      "fullUrl": "http://localhost:8080/cqf-ruler/baseDstu3/DiagnosticReport/DiagnosticReport-430267",
      "resource": {
        "resourceType": "DiagnosticReport",
        "id": "DiagnosticReport-430267",
        "status": "final",
        "code": {
          "coding": [
            {
              "system": "http://loinc.org",
              "code": "8716-3",
              "display": "Vital Signs Panel"
            }
          ]
        },
        "subject": {
          "reference": "Patient/Patient-1133",
          "display": "Michael Jesus Gonzales"
        },
        "context": {
          "reference": "Encounter/Encounter-1863",
          "display": "Wellness Visit"
        },
        "effectivePeriod": {
          "start": "2008-06-20T00:00:00-04:00",
          "end": "2008-06-20T00:00:00-04:00"
        },
        "issued": "2008-06-20T00:00:00.000-04:00",
        "result": [
          {
            "reference": "Observation/Observation-430268",
            "display": "Height"
          },
          {
            "reference": "Observation/Observation-430269",
            "display": "Weight"
          },
          {
            "reference": "Observation/Observation-430270",
            "display": "BMI"
          },
          {
            "reference": "Observation/Observation-430271",
            "display": "Temperature"
          },
          {
            "reference": "Observation/Observation-430272",
            "display": "Systolic Blood Pressure"
          },
          {
            "reference": "Observation/Observation-430273",
            "display": "Diastolic Blood Pressure"
          }
        ]
      },
      "request": {
        "method": "PUT",
        "url": "http://localhost:8080/cqf-ruler/baseDstu3/DiagnosticReport/DiagnosticReport-430267"
      }
    }
  ]
}