{
  "resourceType": "Bundle",
  "id": "Michael Jesus Gonzales-1133-Encounter-577",
  "type": "transaction",
  "entry": [
    {
      "fullUrl": "http://localhost:8080/cqf-ruler/baseDstu3/Encounter/Encounter-577",
      "resource": {
        "resourceType": "Encounter",
        "id": "Encounter-577",
        "status": "finished",
        "class": {
          "system": "http://hl7.org/fhir/encounter-class",
          "code": "outpatient",
          "display": "Inpatient"
        },
        "subject": {
          "reference": "Patient/Patient-1133",
          "display": "Michael Jesus Gonzales"
        },
        "participant": [
          {
            "period": {
              "start": "1991-09-30T11:00:00-04:00",
              "end": "1991-09-30T11:00:00-04:00"
            },
            "individual": {
              "reference": "Practitioner/Practitioner-2529",
              "display": "Stanley Floyd Nielsen MD"
            }
          }
        ],
        "period": {
          "start": "1991-09-30T11:00:00-04:00",
          "end": "1991-09-30T11:00:00-04:00"
        },
        "location": [
          {
            "location": {
              "reference": "Location/Location-1102",
              "display": "Pediatric and Adult Medicine"
            }
          }
        ],
        "serviceProvider": {
          "reference": "Organization/Organization-1102",
          "display": "Pediatric and Adult Medicine"
        }
      },
      "request": {
        "method": "PUT",
        "url": "http://localhost:8080/cqf-ruler/baseDstu3/Encounter/Encounter-577"
      }
    },
    {
      "fullUrl": "http://localhost:8080/cqf-ruler/baseDstu3/Observation/Observation-68789",
      "resource": {
        "resourceType": "Observation",
        "id": "Observation-68789",
        "status": "final",
        "code": {
          "coding": [
            {
              "system": "http://loinc.org",
              "code": "8302-2",
              "display": "Height"
            }
          ]
        },
        "subject": {
          "reference": "Patient/Patient-1133",
          "display": "Michael Jesus Gonzales"
        },
        "context": {
          "reference": "Encounter/Encounter-577",
          "display": "Pediatric and Adult Medicine"
        },
        "effectiveDateTime": "1991-09-30T11:00:00-04:00",
        "performer": [
          {
            "reference": "Practitioner/Practitioner-2529",
            "display": "Stanley Floyd Nielsen MD"
          }
        ],
        "valueQuantity": {
          "value": 0.0,
          "unit": "cm"
        }
      },
      "request": {
        "method": "PUT",
        "url": "http://localhost:8080/cqf-ruler/baseDstu3/Observation/Observation-68789"
      }
    },
    {
      "fullUrl": "http://localhost:8080/cqf-ruler/baseDstu3/Observation/Observation-68790",
      "resource": {
        "resourceType": "Observation",
        "id": "Observation-68790",
        "status": "final",
        "code": {
          "coding": [
            {
              "system": "http://loinc.org",
              "code": "29463-7",
              "display": "Weight"
            }
          ]
        },
        "subject": {
          "reference": "Patient/Patient-1133",
          "display": "Michael Jesus Gonzales"
        },
        "context": {
          "reference": "Encounter/Encounter-577",
          "display": "Pediatric and Adult Medicine"
        },
        "effectiveDateTime": "1991-09-30T11:00:00-04:00",
        "performer": [
          {
            "reference": "Practitioner/Practitioner-2529",
            "display": "Stanley Floyd Nielsen MD"
          }
        ],
        "valueQuantity": {
          "value": 0.0,
          "unit": "kg"
        }
      },
      "request": {
        "method": "PUT",
        "url": "http://localhost:8080/cqf-ruler/baseDstu3/Observation/Observation-68790"
      }
    },
    {
      "fullUrl": "http://localhost:8080/cqf-ruler/baseDstu3/Observation/Observation-68791",
      "resource": {
        "resourceType": "Observation",
        "id": "Observation-68791",
        "status": "final",
        "code": {
          "coding": [
            {
              "system": "http://loinc.org",
              "code": "39156-5",
              "display": "BMI"
            }
          ]
        },
        "subject": {
          "reference": "Patient/Patient-1133",
          "display": "Michael Jesus Gonzales"
        },
        "context": {
          "reference": "Encounter/Encounter-577",
          "display": "Pediatric and Adult Medicine"
        },
        "effectiveDateTime": "1991-09-30T11:00:00-04:00",
        "performer": [
          {
            "reference": "Practitioner/Practitioner-2529",
            "display": "Stanley Floyd Nielsen MD"
          }
        ],
        "valueQuantity": {
          "value": 0.0,
          "unit": "kg/m2"
        }
      },
      "request": {
        "method": "PUT",
        "url": "http://localhost:8080/cqf-ruler/baseDstu3/Observation/Observation-68791"
      }
    },
    {
      "fullUrl": "http://localhost:8080/cqf-ruler/baseDstu3/Observation/Observation-68792",
      "resource": {
        "resourceType": "Observation",
        "id": "Observation-68792",
        "status": "final",
        "code": {
          "coding": [
            {
              "system": "http://loinc.org",
              "code": "8310-5",
              "display": "Temperature"
            }
          ]
        },
        "subject": {
          "reference": "Patient/Patient-1133",
          "display": "Michael Jesus Gonzales"
        },
        "context": {
          "reference": "Encounter/Encounter-577",
          "display": "Pediatric and Adult Medicine"
        },
        "effectiveDateTime": "1991-09-30T11:00:00-04:00",
        "performer": [
          {
            "reference": "Practitioner/Practitioner-2529",
            "display": "Stanley Floyd Nielsen MD"
          }
        ],
        "valueQuantity": {
          "value": 37.0,
          "unit": "C"
        }
      },
      "request": {
        "method": "PUT",
        "url": "http://localhost:8080/cqf-ruler/baseDstu3/Observation/Observation-68792"
      }
    },
    {
      "fullUrl": "http://localhost:8080/cqf-ruler/baseDstu3/Observation/Observation-68793",
      "resource": {
        "resourceType": "Observation",
        "id": "Observation-68793",
        "status": "final",
        "code": {
          "coding": [
            {
              "system": "http://loinc.org",
              "code": "8459-0",
              "display": "Systolic Blood Pressure"
            }
          ]
        },
        "subject": {
          "reference": "Patient/Patient-1133",
          "display": "Michael Jesus Gonzales"
        },
        "context": {
          "reference": "Encounter/Encounter-577",
          "display": "Pediatric and Adult Medicine"
        },
        "effectiveDateTime": "1991-09-30T11:00:00-04:00",
        "performer": [
          {
            "reference": "Practitioner/Practitioner-2529",
            "display": "Stanley Floyd Nielsen MD"
          }
        ],
        "valueQuantity": {
          "value": 102.06391722064578,
          "unit": "mmHg"
        }
      },
      "request": {
        "method": "PUT",
        "url": "http://localhost:8080/cqf-ruler/baseDstu3/Observation/Observation-68793"
      }
    },
    {
      "fullUrl": "http://localhost:8080/cqf-ruler/baseDstu3/Observation/Observation-68794",
      "resource": {
        "resourceType": "Observation",
        "id": "Observation-68794",
        "status": "final",
        "code": {
          "coding": [
            {
              "system": "http://loinc.org",
              "code": "8453-3",
              "display": "Diastolic Blood Pressure"
            }
          ]
        },
        "subject": {
          "reference": "Patient/Patient-1133",
          "display": "Michael Jesus Gonzales"
        },
        "context": {
          "reference": "Encounter/Encounter-577",
          "display": "Pediatric and Adult Medicine"
        },
        "effectiveDateTime": "1991-09-30T11:00:00-04:00",
        "performer": [
          {
            "reference": "Practitioner/Practitioner-2529",
            "display": "Stanley Floyd Nielsen MD"
          }
        ],
        "valueQuantity": {
          "value": 81.05383240214849,
          "unit": "mmHg"
        }
      },
      "request": {
        "method": "PUT",
        "url": "http://localhost:8080/cqf-ruler/baseDstu3/Observation/Observation-68794"
      }
    },
    {
      "fullUrl": "http://localhost:8080/cqf-ruler/baseDstu3/DiagnosticReport/DiagnosticReport-68788",
      "resource": {
        "resourceType": "DiagnosticReport",
        "id": "DiagnosticReport-68788",
        "status": "final",
        "code": {
          "coding": [
            {
              "system": "http://loinc.org",
              "code": "8716-3",
              "display": "Vital Signs Panel"
            }
          ]
        },
        "subject": {
          "reference": "Patient/Patient-1133",
          "display": "Michael Jesus Gonzales"
        },
        "context": {
          "reference": "Encounter/Encounter-577",
          "display": "Pediatric and Adult Medicine"
        },
        "effectivePeriod": {
          "start": "1991-09-30T11:00:00-04:00",
          "end": "1991-09-30T11:00:00-04:00"
        },
        "issued": "1991-09-30T11:00:00.000-04:00",
        "result": [
          {
            "reference": "Observation/Observation-68789",
            "display": "Height"
          },
          {
            "reference": "Observation/Observation-68790",
            "display": "Weight"
          },
          {
            "reference": "Observation/Observation-68791",
            "display": "BMI"
          },
          {
            "reference": "Observation/Observation-68792",
            "display": "Temperature"
          },
          {
            "reference": "Observation/Observation-68793",
            "display": "Systolic Blood Pressure"
          },
          {
            "reference": "Observation/Observation-68794",
            "display": "Diastolic Blood Pressure"
          }
        ]
      },
      "request": {
        "method": "PUT",
        "url": "http://localhost:8080/cqf-ruler/baseDstu3/DiagnosticReport/DiagnosticReport-68788"
      }
    }
  ]
}