{
  "resourceType": "Bundle",
  "id": "Donna-Lynn-Jones-1138-Encounter-1884",
  "type": "transaction",
  "entry": [
    {
      "fullUrl": "http://localhost:8080/cqf-ruler/baseDstu3/Encounter/Encounter-1884",
      "resource": {
        "resourceType": "Encounter",
        "id": "Encounter-1884",
        "meta": {
          "profile": [
            "http://hl7.org/fhir/us/hedis/StructureDefinition/hedis-encounter"
          ]
        },
        "status": "finished",
        "class": {
          "system": "http://hl7.org/fhir/encounter-class",
          "code": "outpatient",
          "display": "Outpatient"
        },
        "subject": {
          "reference": "Patient/Patient-1138",
          "display": "Donna Lynn Jones"
        },
        "participant": [
          {
            "period": {
              "start": "2006-07-07T00:00:00-04:00",
              "end": "2006-07-07T00:00:00-04:00"
            },
            "individual": {
              "reference": "Practitioner/Practitioner-2532",
              "display": "Chad Espinoza Potter MD"
            }
          }
        ],
        "period": {
          "start": "2006-07-07T00:00:00-04:00",
          "end": "2006-07-07T00:00:00-04:00"
        },
        "location": [
          {
            "location": {
              "reference": "Location/Location-1105",
              "display": "Bayside Medical Group"
            }
          }
        ],
        "serviceProvider": {
          "reference": "Organization/Organization-1105",
          "display": "Bayside Medical Group"
        }
      },
      "request": {
        "method": "PUT",
        "url": "http://localhost:8080/cqf-ruler/baseDstu3/Encounter/Encounter-1884"
      }
    },
    {
      "fullUrl": "http://localhost:8080/cqf-ruler/baseDstu3/Immunization/Immunization-347171",
      "resource": {
        "resourceType": "Immunization",
        "id": "Immunization-347171",
        "status": "completed",
        "notGiven": false,
        "vaccineCode": {
          "coding": [
            {
              "system": "http://hl7.org/fhir/sid/cvx",
              "code": "140",
              "display": "Influenza, seasonal, injectable, preservative free"
            }
          ]
        },
        "patient": {
          "reference": "Patient/Patient-1138",
          "display": "Donna Lynn Jones"
        },
        "date": "2006-07-07T00:00:00-04:00",
        "primarySource": true,
        "location": {
          "reference": "Location/Location-1105",
          "display": "Bayside Medical Group"
        },
        "practitioner": [
          {
            "actor": {
              "reference": "Practitioner/Practitioner-2532",
              "display": "Chad Espinoza Potter MD"
            }
          }
        ]
      },
      "request": {
        "method": "PUT",
        "url": "http://localhost:8080/cqf-ruler/baseDstu3/Immunization/Immunization-347171"
      }
    },
    {
      "fullUrl": "http://localhost:8080/cqf-ruler/baseDstu3/Procedure/Procedure-395327",
      "resource": {
        "resourceType": "Procedure",
        "id": "Procedure-395327",
        "meta": {
          "profile": [
            "http://hl7.org/fhir/us/hedis/StructureDefinition/hedis-procedure"
          ]
        },
        "status": "completed",
        "code": {
          "coding": [
            {
              "system": "http://snomed.info/sct",
              "code": "713127001",
              "display": "Assessment of alcohol use"
            }
          ]
        },
        "subject": {
          "reference": "Patient/Patient-1138",
          "display": "Donna Lynn Jones"
        },
        "context": {
          "reference": "Encounter/Encounter-1884",
          "display": "Wellness Visit"
        },
        "performedPeriod": {
          "start": "2006-07-07T00:00:00-04:00",
          "end": "2006-07-07T00:00:00-04:00"
        },
        "performer": [
          {
            "actor": {
              "reference": "Practitioner/Practitioner-2532",
              "display": "Chad Espinoza Potter MD"
            }
          }
        ],
        "location": {
          "reference": "Location/Location-1105",
          "display": "Bayside Medical Group"
        }
      },
      "request": {
        "method": "PUT",
        "url": "http://localhost:8080/cqf-ruler/baseDstu3/Procedure/Procedure-395327"
      }
    },
    {
      "fullUrl": "http://localhost:8080/cqf-ruler/baseDstu3/Observation/Observation-395328",
      "resource": {
        "resourceType": "Observation",
        "id": "Observation-395328",
        "meta": {
          "profile": [
            "http://hl7.org/fhir/us/hedis/StructureDefinition/hedis-observation"
          ]
        },
        "status": "final",
        "code": {
          "coding": [
            {
              "system": "http://snomed.info/sct",
              "code": "704198001",
              "display": "Denies alcohol use (finding)"
            }
          ]
        },
        "subject": {
          "reference": "Patient/Patient-1138",
          "display": "Donna Lynn Jones"
        },
        "context": {
          "reference": "Encounter/Encounter-1884",
          "display": "Wellness Visit"
        },
        "effectiveDateTime": "2006-07-07T00:00:00-04:00",
        "performer": [
          {
            "reference": "Practitioner/Practitioner-2532",
            "display": "Chad Espinoza Potter MD"
          }
        ],
        "valueQuantity": {
          "value": 0.0,
          "unit": "drinks/day"
        }
      },
      "request": {
        "method": "PUT",
        "url": "http://localhost:8080/cqf-ruler/baseDstu3/Observation/Observation-395328"
      }
    },
    {
      "fullUrl": "http://localhost:8080/cqf-ruler/baseDstu3/Procedure/Procedure-395329",
      "resource": {
        "resourceType": "Procedure",
        "id": "Procedure-395329",
        "meta": {
          "profile": [
            "http://hl7.org/fhir/us/hedis/StructureDefinition/hedis-procedure"
          ]
        },
        "status": "completed",
        "code": {
          "coding": [
            {
              "system": "http://www.ama-assn.org/go/cpt",
              "code": "77061",
              "display": "Digital breast tomosynthesis; unilateral"
            }
          ]
        },
        "subject": {
          "reference": "Patient/Patient-1138",
          "display": "Donna Lynn Jones"
        },
        "context": {
          "reference": "Encounter/Encounter-1884",
          "display": "Wellness Visit"
        },
        "performedPeriod": {
          "start": "2006-07-07T00:00:00-04:00",
          "end": "2006-07-07T00:00:00-04:00"
        },
        "performer": [
          {
            "actor": {
              "reference": "Practitioner/Practitioner-2532",
              "display": "Chad Espinoza Potter MD"
            }
          }
        ],
        "location": {
          "reference": "Location/Location-1105",
          "display": "Bayside Medical Group"
        }
      },
      "request": {
        "method": "PUT",
        "url": "http://localhost:8080/cqf-ruler/baseDstu3/Procedure/Procedure-395329"
      }
    },
    {
      "fullUrl": "http://localhost:8080/cqf-ruler/baseDstu3/Observation/Observation-395330",
      "resource": {
        "resourceType": "Observation",
        "id": "Observation-395330",
        "meta": {
          "profile": [
            "http://hl7.org/fhir/us/hedis/StructureDefinition/hedis-observation"
          ]
        },
        "status": "final",
        "code": {
          "coding": [
            {
              "system": "http://snomed.info/sct",
              "code": "168749009",
              "display": "Mammography normal (finding)"
            }
          ]
        },
        "subject": {
          "reference": "Patient/Patient-1138",
          "display": "Donna Lynn Jones"
        },
        "context": {
          "reference": "Encounter/Encounter-1884",
          "display": "Wellness Visit"
        },
        "effectiveDateTime": "2006-07-07T00:00:00-04:00",
        "performer": [
          {
            "reference": "Practitioner/Practitioner-2532",
            "display": "Chad Espinoza Potter MD"
          }
        ],
        "valueString": "NEGATIVE"
      },
      "request": {
        "method": "PUT",
        "url": "http://localhost:8080/cqf-ruler/baseDstu3/Observation/Observation-395330"
      }
    },
    {
      "fullUrl": "http://localhost:8080/cqf-ruler/baseDstu3/DiagnosticReport/DiagnosticReport-395331",
      "resource": {
        "resourceType": "DiagnosticReport",
        "id": "DiagnosticReport-395331",
        "meta": {
          "profile": [
            "http://hl7.org/fhir/us/hedis/StructureDefinition/hedis-diagnosticreport"
          ]
        },
        "status": "final",
        "category": {
          "coding": [
            {
              "system": "http://hl7.org/fhir/ValueSet/diagnostic-service-sections",
              "code": "RAD",
              "display": "Radiology"
            }
          ]
        },
        "code": {
          "coding": [
            {
              "system": "http://loinc.org",
              "code": "37769-7",
              "display": "Breast - right Mammogram magnification and spot"
            }
          ]
        },
        "subject": {
          "reference": "Patient/Patient-1138",
          "display": "Donna Lynn Jones"
        },
        "context": {
          "reference": "Encounter/Encounter-1884",
          "display": "Wellness Visit"
        },
        "effectivePeriod": {
          "start": "2006-07-07T00:00:00-04:00",
          "end": "2006-07-07T00:00:00-04:00"
        },
        "issued": "2006-07-07T00:00:00.000-04:00",
        "result": [
          {
            "reference": "Observation/Observation-395330",
            "display": "No_Cancer_Detected"
          }
        ]
      },
      "request": {
        "method": "PUT",
        "url": "http://localhost:8080/cqf-ruler/baseDstu3/DiagnosticReport/DiagnosticReport-395331"
      }
    },
    {
      "fullUrl": "http://localhost:8080/cqf-ruler/baseDstu3/Observation/Observation-395332",
      "resource": {
        "resourceType": "Observation",
        "id": "Observation-395332",
        "meta": {
          "profile": [
            "http://hl7.org/fhir/us/hedis/StructureDefinition/hedis-observation"
          ]
        },
        "status": "final",
        "code": {
          "coding": [
            {
              "system": "http://loinc.org",
              "code": "8480-6",
              "display": "Systolic blood pressure"
            }
          ]
        },
        "subject": {
          "reference": "Patient/Patient-1138",
          "display": "Donna Lynn Jones"
        },
        "context": {
          "reference": "Encounter/Encounter-1884",
          "display": "Wellness Visit"
        },
        "effectiveDateTime": "2006-07-07T00:00:00-04:00",
        "performer": [
          {
            "reference": "Practitioner/Practitioner-2532",
            "display": "Chad Espinoza Potter MD"
          }
        ],
        "valueQuantity": {
          "value": 151.92761759525845,
          "unit": "mmHg"
        }
      },
      "request": {
        "method": "PUT",
        "url": "http://localhost:8080/cqf-ruler/baseDstu3/Observation/Observation-395332"
      }
    },
    {
      "fullUrl": "http://localhost:8080/cqf-ruler/baseDstu3/Observation/Observation-395333",
      "resource": {
        "resourceType": "Observation",
        "id": "Observation-395333",
        "meta": {
          "profile": [
            "http://hl7.org/fhir/us/hedis/StructureDefinition/hedis-observation"
          ]
        },
        "status": "final",
        "code": {
          "coding": [
            {
              "system": "http://loinc.org",
              "code": "8462-4",
              "display": "Diastolic blood pressure"
            }
          ]
        },
        "subject": {
          "reference": "Patient/Patient-1138",
          "display": "Donna Lynn Jones"
        },
        "context": {
          "reference": "Encounter/Encounter-1884",
          "display": "Wellness Visit"
        },
        "effectiveDateTime": "2006-07-07T00:00:00-04:00",
        "performer": [
          {
            "reference": "Practitioner/Practitioner-2532",
            "display": "Chad Espinoza Potter MD"
          }
        ],
        "valueQuantity": {
          "value": 87.9092469078239,
          "unit": "mmHg"
        }
      },
      "request": {
        "method": "PUT",
        "url": "http://localhost:8080/cqf-ruler/baseDstu3/Observation/Observation-395333"
      }
    },
    {
      "fullUrl": "http://localhost:8080/cqf-ruler/baseDstu3/Condition/Condition-395334",
      "resource": {
        "resourceType": "Condition",
        "id": "Condition-395334",
        "meta": {
          "profile": [
            "http://hl7.org/fhir/us/hedis/StructureDefinition/hedis-condition"
          ]
        },
        "clinicalStatus": "active",
        "verificationStatus": "confirmed",
        "code": {
          "coding": [
            {
              "system": "http://snomed.info/sct",
              "code": "46481004",
              "display": "Low-renin essential hypertension"
            }
          ]
        },
        "subject": {
          "reference": "Patient/Patient-1138",
          "display": "Donna Lynn Jones"
        },
        "context": {
          "reference": "Encounter/Encounter-1884",
          "display": "Wellness Visit"
        },
        "onsetDateTime": "2006-07-07T00:00:00-04:00",
        "assertedDate": "2006-07-07T00:00:00-04:00",
        "asserter": {
          "reference": "Practitioner/Practitioner-2532",
          "display": "Chad Espinoza Potter MD"
        }
      },
      "request": {
        "method": "PUT",
        "url": "http://localhost:8080/cqf-ruler/baseDstu3/Condition/Condition-395334"
      }
    },
    {
      "fullUrl": "http://localhost:8080/cqf-ruler/baseDstu3/Procedure/Procedure-395335",
      "resource": {
        "resourceType": "Procedure",
        "id": "Procedure-395335",
        "meta": {
          "profile": [
            "http://hl7.org/fhir/us/hedis/StructureDefinition/hedis-procedure"
          ]
        },
        "status": "completed",
        "code": {
          "coding": [
            {
              "system": "http://www.ama-assn.org/go/cpt",
              "code": "82270",
              "display": "Blood, occult, by peroxidase activity (eg, guaiac), qualitative; feces, consecutive collected specimens with single determination, for colorectal neoplasm screening (ie, patient was provided 3 cards or single triple card for consecutive collection)"
            }
          ]
        },
        "subject": {
          "reference": "Patient/Patient-1138",
          "display": "Donna Lynn Jones"
        },
        "context": {
          "reference": "Encounter/Encounter-1884",
          "display": "Wellness Visit"
        },
        "performedPeriod": {
          "start": "2006-07-07T00:00:00-04:00",
          "end": "2006-07-07T00:00:00-04:00"
        },
        "performer": [
          {
            "actor": {
              "reference": "Practitioner/Practitioner-2532",
              "display": "Chad Espinoza Potter MD"
            }
          }
        ],
        "location": {
          "reference": "Location/Location-1105",
          "display": "Bayside Medical Group"
        }
      },
      "request": {
        "method": "PUT",
        "url": "http://localhost:8080/cqf-ruler/baseDstu3/Procedure/Procedure-395335"
      }
    },
    {
      "fullUrl": "http://localhost:8080/cqf-ruler/baseDstu3/Observation/Observation-395336",
      "resource": {
        "resourceType": "Observation",
        "id": "Observation-395336",
        "meta": {
          "profile": [
            "http://hl7.org/fhir/us/hedis/StructureDefinition/hedis-observation"
          ]
        },
        "status": "final",
        "code": {
          "coding": [
            {
              "system": "http://www.ama-assn.org/go/cpt",
              "code": "82274",
              "display": "Blood, occult, by fecal hemoglobin determination by immunoassay, qualitative, feces, 1-3 simultaneous determinations"
            }
          ]
        },
        "subject": {
          "reference": "Patient/Patient-1138",
          "display": "Donna Lynn Jones"
        },
        "context": {
          "reference": "Encounter/Encounter-1884",
          "display": "Wellness Visit"
        },
        "effectiveDateTime": "2006-07-07T00:00:00-04:00",
        "performer": [
          {
            "reference": "Practitioner/Practitioner-2532",
            "display": "Chad Espinoza Potter MD"
          }
        ],
        "valueString": "POSITIVE"
      },
      "request": {
        "method": "PUT",
        "url": "http://localhost:8080/cqf-ruler/baseDstu3/Observation/Observation-395336"
      }
    },
    {
      "fullUrl": "http://localhost:8080/cqf-ruler/baseDstu3/Observation/Observation-395339",
      "resource": {
        "resourceType": "Observation",
        "id": "Observation-395339",
        "status": "final",
        "code": {
          "coding": [
            {
              "system": "http://loinc.org",
              "code": "8302-2",
              "display": "Height"
            }
          ]
        },
        "subject": {
          "reference": "Patient/Patient-1138",
          "display": "Donna Lynn Jones"
        },
        "context": {
          "reference": "Encounter/Encounter-1884",
          "display": "Wellness Visit"
        },
        "effectiveDateTime": "2006-07-07T00:00:00-04:00",
        "performer": [
          {
            "reference": "Practitioner/Practitioner-2532",
            "display": "Chad Espinoza Potter MD"
          }
        ],
        "valueQuantity": {
          "value": 163.3,
          "unit": "cm"
        }
      },
      "request": {
        "method": "PUT",
        "url": "http://localhost:8080/cqf-ruler/baseDstu3/Observation/Observation-395339"
      }
    },
    {
      "fullUrl": "http://localhost:8080/cqf-ruler/baseDstu3/Observation/Observation-395340",
      "resource": {
        "resourceType": "Observation",
        "id": "Observation-395340",
        "status": "final",
        "code": {
          "coding": [
            {
              "system": "http://loinc.org",
              "code": "29463-7",
              "display": "Weight"
            }
          ]
        },
        "subject": {
          "reference": "Patient/Patient-1138",
          "display": "Donna Lynn Jones"
        },
        "context": {
          "reference": "Encounter/Encounter-1884",
          "display": "Wellness Visit"
        },
        "effectiveDateTime": "2006-07-07T00:00:00-04:00",
        "performer": [
          {
            "reference": "Practitioner/Practitioner-2532",
            "display": "Chad Espinoza Potter MD"
          }
        ],
        "valueQuantity": {
          "value": 80.62418711906933,
          "unit": "kg"
        }
      },
      "request": {
        "method": "PUT",
        "url": "http://localhost:8080/cqf-ruler/baseDstu3/Observation/Observation-395340"
      }
    },
    {
      "fullUrl": "http://localhost:8080/cqf-ruler/baseDstu3/Observation/Observation-395341",
      "resource": {
        "resourceType": "Observation",
        "id": "Observation-395341",
        "status": "final",
        "code": {
          "coding": [
            {
              "system": "http://loinc.org",
              "code": "39156-5",
              "display": "BMI"
            }
          ]
        },
        "subject": {
          "reference": "Patient/Patient-1138",
          "display": "Donna Lynn Jones"
        },
        "context": {
          "reference": "Encounter/Encounter-1884",
          "display": "Wellness Visit"
        },
        "effectiveDateTime": "2006-07-07T00:00:00-04:00",
        "performer": [
          {
            "reference": "Practitioner/Practitioner-2532",
            "display": "Chad Espinoza Potter MD"
          }
        ],
        "valueQuantity": {
          "value": 30.23381696143395,
          "unit": "kg/m2"
        }
      },
      "request": {
        "method": "PUT",
        "url": "http://localhost:8080/cqf-ruler/baseDstu3/Observation/Observation-395341"
      }
    },
    {
      "fullUrl": "http://localhost:8080/cqf-ruler/baseDstu3/Observation/Observation-395342",
      "resource": {
        "resourceType": "Observation",
        "id": "Observation-395342",
        "status": "final",
        "code": {
          "coding": [
            {
              "system": "http://loinc.org",
              "code": "8310-5",
              "display": "Temperature"
            }
          ]
        },
        "subject": {
          "reference": "Patient/Patient-1138",
          "display": "Donna Lynn Jones"
        },
        "context": {
          "reference": "Encounter/Encounter-1884",
          "display": "Wellness Visit"
        },
        "effectiveDateTime": "2006-07-07T00:00:00-04:00",
        "performer": [
          {
            "reference": "Practitioner/Practitioner-2532",
            "display": "Chad Espinoza Potter MD"
          }
        ],
        "valueQuantity": {
          "value": 37.0,
          "unit": "C"
        }
      },
      "request": {
        "method": "PUT",
        "url": "http://localhost:8080/cqf-ruler/baseDstu3/Observation/Observation-395342"
      }
    },
    {
      "fullUrl": "http://localhost:8080/cqf-ruler/baseDstu3/Observation/Observation-395343",
      "resource": {
        "resourceType": "Observation",
        "id": "Observation-395343",
        "status": "final",
        "code": {
          "coding": [
            {
              "system": "http://loinc.org",
              "code": "8459-0",
              "display": "Systolic Blood Pressure"
            }
          ]
        },
        "subject": {
          "reference": "Patient/Patient-1138",
          "display": "Donna Lynn Jones"
        },
        "context": {
          "reference": "Encounter/Encounter-1884",
          "display": "Wellness Visit"
        },
        "effectiveDateTime": "2006-07-07T00:00:00-04:00",
        "performer": [
          {
            "reference": "Practitioner/Practitioner-2532",
            "display": "Chad Espinoza Potter MD"
          }
        ],
        "valueQuantity": {
          "value": 151.92761759525845,
          "unit": "mmHg"
        }
      },
      "request": {
        "method": "PUT",
        "url": "http://localhost:8080/cqf-ruler/baseDstu3/Observation/Observation-395343"
      }
    },
    {
      "fullUrl": "http://localhost:8080/cqf-ruler/baseDstu3/Observation/Observation-395344",
      "resource": {
        "resourceType": "Observation",
        "id": "Observation-395344",
        "status": "final",
        "code": {
          "coding": [
            {
              "system": "http://loinc.org",
              "code": "8453-3",
              "display": "Diastolic Blood Pressure"
            }
          ]
        },
        "subject": {
          "reference": "Patient/Patient-1138",
          "display": "Donna Lynn Jones"
        },
        "context": {
          "reference": "Encounter/Encounter-1884",
          "display": "Wellness Visit"
        },
        "effectiveDateTime": "2006-07-07T00:00:00-04:00",
        "performer": [
          {
            "reference": "Practitioner/Practitioner-2532",
            "display": "Chad Espinoza Potter MD"
          }
        ],
        "valueQuantity": {
          "value": 87.9092469078239,
          "unit": "mmHg"
        }
      },
      "request": {
        "method": "PUT",
        "url": "http://localhost:8080/cqf-ruler/baseDstu3/Observation/Observation-395344"
      }
    },
    {
      "fullUrl": "http://localhost:8080/cqf-ruler/baseDstu3/DiagnosticReport/DiagnosticReport-395338",
      "resource": {
        "resourceType": "DiagnosticReport",
        "id": "DiagnosticReport-395338",
        "meta": {
          "profile": [
            "http://hl7.org/fhir/us/hedis/StructureDefinition/hedis-diagnosticreport"
          ]
        },
        "status": "final",
        "category": {
          "coding": [
            {
              "system": "http://hl7.org/fhir/ValueSet/diagnostic-service-sections",
              "code": "LAB",
              "display": "Laboratory"
            }
          ]
        },
        "code": {
          "coding": [
            {
              "system": "http://loinc.org",
              "code": "8716-3",
              "display": "Vital Signs Panel"
            }
          ]
        },
        "subject": {
          "reference": "Patient/Patient-1138",
          "display": "Donna Lynn Jones"
        },
        "context": {
          "reference": "Encounter/Encounter-1884",
          "display": "Wellness Visit"
        },
        "effectivePeriod": {
          "start": "2006-07-07T00:00:00-04:00",
          "end": "2006-07-07T00:00:00-04:00"
        },
        "issued": "2006-07-07T00:00:00.000-04:00",
        "result": [
          {
            "reference": "Observation/Observation-395339",
            "display": "Height"
          },
          {
            "reference": "Observation/Observation-395340",
            "display": "Weight"
          },
          {
            "reference": "Observation/Observation-395341",
            "display": "BMI"
          },
          {
            "reference": "Observation/Observation-395342",
            "display": "Temperature"
          },
          {
            "reference": "Observation/Observation-395343",
            "display": "Systolic Blood Pressure"
          },
          {
            "reference": "Observation/Observation-395344",
            "display": "Diastolic Blood Pressure"
          }
        ]
      },
      "request": {
        "method": "PUT",
        "url": "http://localhost:8080/cqf-ruler/baseDstu3/DiagnosticReport/DiagnosticReport-395338"
      }
    },
    {
      "fullUrl": "http://localhost:8080/cqf-ruler/baseDstu3/Procedure/Procedure-395367",
      "resource": {
        "resourceType": "Procedure",
        "id": "Procedure-395367",
        "meta": {
          "profile": [
            "http://hl7.org/fhir/us/hedis/StructureDefinition/hedis-procedure"
          ]
        },
        "status": "completed",
        "code": {
          "coding": [
            {
              "system": "http://loinc.org",
              "code": "73831-0",
              "display": "Adolescent depression screening assessment"
            }
          ]
        },
        "subject": {
          "reference": "Patient/Patient-1138",
          "display": "Donna Lynn Jones"
        },
        "context": {
          "reference": "Encounter/Encounter-1884",
          "display": "Wellness Visit"
        },
        "performedPeriod": {
          "start": "2006-07-07T00:00:00-04:00",
          "end": "2006-07-07T00:00:00-04:00"
        },
        "performer": [
          {
            "actor": {
              "reference": "Practitioner/Practitioner-2532",
              "display": "Chad Espinoza Potter MD"
            }
          }
        ],
        "location": {
          "reference": "Location/Location-1105",
          "display": "Bayside Medical Group"
        }
      },
      "request": {
        "method": "PUT",
        "url": "http://localhost:8080/cqf-ruler/baseDstu3/Procedure/Procedure-395367"
      }
    },
    {
      "fullUrl": "http://localhost:8080/cqf-ruler/baseDstu3/Observation/Observation-395368",
      "resource": {
        "resourceType": "Observation",
        "id": "Observation-395368",
        "meta": {
          "profile": [
            "http://hl7.org/fhir/us/hedis/StructureDefinition/hedis-observation"
          ]
        },
        "status": "final",
        "code": {
          "coding": [
            {
              "system": "http://snomed.info/sct",
              "code": "428171000124102",
              "display": "Depression screening negative (finding)"
            }
          ]
        },
        "subject": {
          "reference": "Patient/Patient-1138",
          "display": "Donna Lynn Jones"
        },
        "context": {
          "reference": "Encounter/Encounter-1884",
          "display": "Wellness Visit"
        },
        "effectiveDateTime": "2006-07-07T00:00:00-04:00",
        "performer": [
          {
            "reference": "Practitioner/Practitioner-2532",
            "display": "Chad Espinoza Potter MD"
          }
        ],
        "valueString": "NEGATIVE"
      },
      "request": {
        "method": "PUT",
        "url": "http://localhost:8080/cqf-ruler/baseDstu3/Observation/Observation-395368"
      }
    },
    {
      "fullUrl": "http://localhost:8080/cqf-ruler/baseDstu3/Observation/Observation-395369",
      "resource": {
        "resourceType": "Observation",
        "id": "Observation-395369",
        "meta": {
          "profile": [
            "http://hl7.org/fhir/us/hedis/StructureDefinition/hedis-observation"
          ]
        },
        "status": "final",
        "code": {
          "coding": [
            {
              "system": "http://loinc.org",
              "code": "8302-2",
              "display": "Body Height"
            }
          ]
        },
        "subject": {
          "reference": "Patient/Patient-1138",
          "display": "Donna Lynn Jones"
        },
        "context": {
          "reference": "Encounter/Encounter-1884",
          "display": "Wellness Visit"
        },
        "effectiveDateTime": "2006-07-07T00:00:00-04:00",
        "performer": [
          {
            "reference": "Practitioner/Practitioner-2532",
            "display": "Chad Espinoza Potter MD"
          }
        ],
        "valueQuantity": {
          "value": 163.3,
          "unit": "cm"
        }
      },
      "request": {
        "method": "PUT",
        "url": "http://localhost:8080/cqf-ruler/baseDstu3/Observation/Observation-395369"
      }
    },
    {
      "fullUrl": "http://localhost:8080/cqf-ruler/baseDstu3/Observation/Observation-395370",
      "resource": {
        "resourceType": "Observation",
        "id": "Observation-395370",
        "meta": {
          "profile": [
            "http://hl7.org/fhir/us/hedis/StructureDefinition/hedis-observation"
          ]
        },
        "status": "final",
        "code": {
          "coding": [
            {
              "system": "http://loinc.org",
              "code": "29463-7",
              "display": "Body Weight"
            }
          ]
        },
        "subject": {
          "reference": "Patient/Patient-1138",
          "display": "Donna Lynn Jones"
        },
        "context": {
          "reference": "Encounter/Encounter-1884",
          "display": "Wellness Visit"
        },
        "effectiveDateTime": "2006-07-07T00:00:00-04:00",
        "performer": [
          {
            "reference": "Practitioner/Practitioner-2532",
            "display": "Chad Espinoza Potter MD"
          }
        ],
        "valueQuantity": {
          "value": 80.62418711906933,
          "unit": "kg"
        }
      },
      "request": {
        "method": "PUT",
        "url": "http://localhost:8080/cqf-ruler/baseDstu3/Observation/Observation-395370"
      }
    },
    {
      "fullUrl": "http://localhost:8080/cqf-ruler/baseDstu3/Observation/Observation-395371",
      "resource": {
        "resourceType": "Observation",
        "id": "Observation-395371",
        "meta": {
          "profile": [
            "http://hl7.org/fhir/us/hedis/StructureDefinition/hedis-observation"
          ]
        },
        "status": "final",
        "code": {
          "coding": [
            {
              "system": "http://loinc.org",
              "code": "39156-5",
              "display": "Body Mass Index"
            }
          ]
        },
        "subject": {
          "reference": "Patient/Patient-1138",
          "display": "Donna Lynn Jones"
        },
        "context": {
          "reference": "Encounter/Encounter-1884",
          "display": "Wellness Visit"
        },
        "effectiveDateTime": "2006-07-07T00:00:00-04:00",
        "performer": [
          {
            "reference": "Practitioner/Practitioner-2532",
            "display": "Chad Espinoza Potter MD"
          }
        ],
        "valueQuantity": {
          "value": 30.23381696143395,
          "unit": "kg/m2"
        }
      },
      "request": {
        "method": "PUT",
        "url": "http://localhost:8080/cqf-ruler/baseDstu3/Observation/Observation-395371"
      }
    },
    {
      "fullUrl": "http://localhost:8080/cqf-ruler/baseDstu3/Observation/Observation-395374",
      "resource": {
        "resourceType": "Observation",
        "id": "Observation-395374",
        "meta": {
          "profile": [
            "http://hl7.org/fhir/us/hedis/StructureDefinition/hedis-observation"
          ]
        },
        "status": "final",
        "code": {
          "coding": [
            {
              "system": "http://loinc.org",
              "code": "55284-4",
              "display": "Blood Pressure"
            }
          ]
        },
        "subject": {
          "reference": "Patient/Patient-1138",
          "display": "Donna Lynn Jones"
        },
        "context": {
          "reference": "Encounter/Encounter-1884",
          "display": "Wellness Visit"
        },
        "effectiveDateTime": "2006-07-07T00:00:00-04:00",
        "valueQuantity": {
          "value": 87.9092469078239,
          "unit": "mmHg"
        },
        "component": [
          {
            "code": {
              "coding": [
                {
                  "system": "http://loinc.org",
                  "code": "8480-6",
                  "display": "Systolic Blood Pressure"
                }
              ]
            }
          },
          {
            "code": {
              "coding": [
                {
                  "system": "http://loinc.org",
                  "code": "8462-4",
                  "display": "Diastolic Blood Pressure"
                }
              ]
            }
          }
        ]
      },
      "request": {
        "method": "PUT",
        "url": "http://localhost:8080/cqf-ruler/baseDstu3/Observation/Observation-395374"
      }
    },
    {
      "fullUrl": "http://localhost:8080/cqf-ruler/baseDstu3/Observation/Observation-395375",
      "resource": {
        "resourceType": "Observation",
        "id": "Observation-395375",
        "meta": {
          "profile": [
            "http://hl7.org/fhir/us/hedis/StructureDefinition/hedis-observation"
          ]
        },
        "status": "final",
        "code": {
          "coding": [
            {
              "system": "http://loinc.org",
              "code": "4548-4",
              "display": "Hemoglobin A1c/Hemoglobin.total in Blood"
            }
          ]
        },
        "subject": {
          "reference": "Patient/Patient-1138",
          "display": "Donna Lynn Jones"
        },
        "context": {
          "reference": "Encounter/Encounter-1884",
          "display": "Wellness Visit"
        },
        "effectiveDateTime": "2006-07-07T00:00:00-04:00",
        "performer": [
          {
            "reference": "Practitioner/Practitioner-2532",
            "display": "Chad Espinoza Potter MD"
          }
        ],
        "valueQuantity": {
          "value": 5.26612044994787,
          "unit": "%"
        }
      },
      "request": {
        "method": "PUT",
        "url": "http://localhost:8080/cqf-ruler/baseDstu3/Observation/Observation-395375"
      }
    },
    {
      "fullUrl": "http://localhost:8080/cqf-ruler/baseDstu3/Observation/Observation-395376",
      "resource": {
        "resourceType": "Observation",
        "id": "Observation-395376",
        "meta": {
          "profile": [
            "http://hl7.org/fhir/us/hedis/StructureDefinition/hedis-observation"
          ]
        },
        "status": "final",
        "code": {
          "coding": [
            {
              "system": "http://loinc.org",
              "code": "2339-0",
              "display": "Glucose"
            }
          ]
        },
        "subject": {
          "reference": "Patient/Patient-1138",
          "display": "Donna Lynn Jones"
        },
        "context": {
          "reference": "Encounter/Encounter-1884",
          "display": "Wellness Visit"
        },
        "effectiveDateTime": "2006-07-07T00:00:00-04:00",
        "performer": [
          {
            "reference": "Practitioner/Practitioner-2532",
            "display": "Chad Espinoza Potter MD"
          }
        ],
        "valueQuantity": {
          "value": 84.40605948127154,
          "unit": "mg/dL"
        }
      },
      "request": {
        "method": "PUT",
        "url": "http://localhost:8080/cqf-ruler/baseDstu3/Observation/Observation-395376"
      }
    },
    {
      "fullUrl": "http://localhost:8080/cqf-ruler/baseDstu3/Observation/Observation-395377",
      "resource": {
        "resourceType": "Observation",
        "id": "Observation-395377",
        "meta": {
          "profile": [
            "http://hl7.org/fhir/us/hedis/StructureDefinition/hedis-observation"
          ]
        },
        "status": "final",
        "code": {
          "coding": [
            {
              "system": "http://loinc.org",
              "code": "6299-2",
              "display": "Urea Nitrogen"
            }
          ]
        },
        "subject": {
          "reference": "Patient/Patient-1138",
          "display": "Donna Lynn Jones"
        },
        "context": {
          "reference": "Encounter/Encounter-1884",
          "display": "Wellness Visit"
        },
        "effectiveDateTime": "2006-07-07T00:00:00-04:00",
        "performer": [
          {
            "reference": "Practitioner/Practitioner-2532",
            "display": "Chad Espinoza Potter MD"
          }
        ],
        "valueQuantity": {
          "value": 7.755247899279547,
          "unit": "mg/dL"
        }
      },
      "request": {
        "method": "PUT",
        "url": "http://localhost:8080/cqf-ruler/baseDstu3/Observation/Observation-395377"
      }
    },
    {
      "fullUrl": "http://localhost:8080/cqf-ruler/baseDstu3/Observation/Observation-395378",
      "resource": {
        "resourceType": "Observation",
        "id": "Observation-395378",
        "meta": {
          "profile": [
            "http://hl7.org/fhir/us/hedis/StructureDefinition/hedis-observation"
          ]
        },
        "status": "final",
        "code": {
          "coding": [
            {
              "system": "http://loinc.org",
              "code": "38483-4",
              "display": "Creatinine"
            }
          ]
        },
        "subject": {
          "reference": "Patient/Patient-1138",
          "display": "Donna Lynn Jones"
        },
        "context": {
          "reference": "Encounter/Encounter-1884",
          "display": "Wellness Visit"
        },
        "effectiveDateTime": "2006-07-07T00:00:00-04:00",
        "performer": [
          {
            "reference": "Practitioner/Practitioner-2532",
            "display": "Chad Espinoza Potter MD"
          }
        ],
        "valueQuantity": {
          "value": 0.35765254536765445,
          "unit": "mg/dL"
        }
      },
      "request": {
        "method": "PUT",
        "url": "http://localhost:8080/cqf-ruler/baseDstu3/Observation/Observation-395378"
      }
    },
    {
      "fullUrl": "http://localhost:8080/cqf-ruler/baseDstu3/Observation/Observation-395379",
      "resource": {
        "resourceType": "Observation",
        "id": "Observation-395379",
        "meta": {
          "profile": [
            "http://hl7.org/fhir/us/hedis/StructureDefinition/hedis-observation"
          ]
        },
        "status": "final",
        "code": {
          "coding": [
            {
              "system": "http://loinc.org",
              "code": "49765-1",
              "display": "Calcium"
            }
          ]
        },
        "subject": {
          "reference": "Patient/Patient-1138",
          "display": "Donna Lynn Jones"
        },
        "context": {
          "reference": "Encounter/Encounter-1884",
          "display": "Wellness Visit"
        },
        "effectiveDateTime": "2006-07-07T00:00:00-04:00",
        "performer": [
          {
            "reference": "Practitioner/Practitioner-2532",
            "display": "Chad Espinoza Potter MD"
          }
        ],
        "valueQuantity": {
          "value": 2.6041976107846807,
          "unit": "mmol/L"
        }
      },
      "request": {
        "method": "PUT",
        "url": "http://localhost:8080/cqf-ruler/baseDstu3/Observation/Observation-395379"
      }
    },
    {
      "fullUrl": "http://localhost:8080/cqf-ruler/baseDstu3/Observation/Observation-395380",
      "resource": {
        "resourceType": "Observation",
        "id": "Observation-395380",
        "meta": {
          "profile": [
            "http://hl7.org/fhir/us/hedis/StructureDefinition/hedis-observation"
          ]
        },
        "status": "final",
        "code": {
          "coding": [
            {
              "system": "http://loinc.org",
              "code": "2947-0",
              "display": "Sodium"
            }
          ]
        },
        "subject": {
          "reference": "Patient/Patient-1138",
          "display": "Donna Lynn Jones"
        },
        "context": {
          "reference": "Encounter/Encounter-1884",
          "display": "Wellness Visit"
        },
        "effectiveDateTime": "2006-07-07T00:00:00-04:00",
        "performer": [
          {
            "reference": "Practitioner/Practitioner-2532",
            "display": "Chad Espinoza Potter MD"
          }
        ],
        "valueQuantity": {
          "value": 140.60291175994266,
          "unit": "mmol/L"
        }
      },
      "request": {
        "method": "PUT",
        "url": "http://localhost:8080/cqf-ruler/baseDstu3/Observation/Observation-395380"
      }
    },
    {
      "fullUrl": "http://localhost:8080/cqf-ruler/baseDstu3/Observation/Observation-395381",
      "resource": {
        "resourceType": "Observation",
        "id": "Observation-395381",
        "meta": {
          "profile": [
            "http://hl7.org/fhir/us/hedis/StructureDefinition/hedis-observation"
          ]
        },
        "status": "final",
        "code": {
          "coding": [
            {
              "system": "http://loinc.org",
              "code": "6298-4",
              "display": "Potassium"
            }
          ]
        },
        "subject": {
          "reference": "Patient/Patient-1138",
          "display": "Donna Lynn Jones"
        },
        "context": {
          "reference": "Encounter/Encounter-1884",
          "display": "Wellness Visit"
        },
        "effectiveDateTime": "2006-07-07T00:00:00-04:00",
        "performer": [
          {
            "reference": "Practitioner/Practitioner-2532",
            "display": "Chad Espinoza Potter MD"
          }
        ],
        "valueQuantity": {
          "value": 5.266254834951655,
          "unit": "mmol/L"
        }
      },
      "request": {
        "method": "PUT",
        "url": "http://localhost:8080/cqf-ruler/baseDstu3/Observation/Observation-395381"
      }
    },
    {
      "fullUrl": "http://localhost:8080/cqf-ruler/baseDstu3/Observation/Observation-395382",
      "resource": {
        "resourceType": "Observation",
        "id": "Observation-395382",
        "meta": {
          "profile": [
            "http://hl7.org/fhir/us/hedis/StructureDefinition/hedis-observation"
          ]
        },
        "status": "final",
        "code": {
          "coding": [
            {
              "system": "http://loinc.org",
              "code": "2069-3",
              "display": "Chloride"
            }
          ]
        },
        "subject": {
          "reference": "Patient/Patient-1138",
          "display": "Donna Lynn Jones"
        },
        "context": {
          "reference": "Encounter/Encounter-1884",
          "display": "Wellness Visit"
        },
        "effectiveDateTime": "2006-07-07T00:00:00-04:00",
        "performer": [
          {
            "reference": "Practitioner/Practitioner-2532",
            "display": "Chad Espinoza Potter MD"
          }
        ],
        "valueQuantity": {
          "value": 105.47873267526784,
          "unit": "mmol/L"
        }
      },
      "request": {
        "method": "PUT",
        "url": "http://localhost:8080/cqf-ruler/baseDstu3/Observation/Observation-395382"
      }
    },
    {
      "fullUrl": "http://localhost:8080/cqf-ruler/baseDstu3/Observation/Observation-395383",
      "resource": {
        "resourceType": "Observation",
        "id": "Observation-395383",
        "meta": {
          "profile": [
            "http://hl7.org/fhir/us/hedis/StructureDefinition/hedis-observation"
          ]
        },
        "status": "final",
        "code": {
          "coding": [
            {
              "system": "http://loinc.org",
              "code": "20565-8",
              "display": "Carbon Dioxide"
            }
          ]
        },
        "subject": {
          "reference": "Patient/Patient-1138",
          "display": "Donna Lynn Jones"
        },
        "context": {
          "reference": "Encounter/Encounter-1884",
          "display": "Wellness Visit"
        },
        "effectiveDateTime": "2006-07-07T00:00:00-04:00",
        "performer": [
          {
            "reference": "Practitioner/Practitioner-2532",
            "display": "Chad Espinoza Potter MD"
          }
        ],
        "valueQuantity": {
          "value": 25.817317976999,
          "unit": "mmol/L"
        }
      },
      "request": {
        "method": "PUT",
        "url": "http://localhost:8080/cqf-ruler/baseDstu3/Observation/Observation-395383"
      }
    },
    {
      "fullUrl": "http://localhost:8080/cqf-ruler/baseDstu3/DiagnosticReport/DiagnosticReport-395384",
      "resource": {
        "resourceType": "DiagnosticReport",
        "id": "DiagnosticReport-395384",
        "meta": {
          "profile": [
            "http://hl7.org/fhir/us/hedis/StructureDefinition/hedis-diagnosticreport"
          ]
        },
        "status": "final",
        "category": {
          "coding": [
            {
              "system": "http://hl7.org/fhir/ValueSet/diagnostic-service-sections",
              "code": "LAB",
              "display": "Laboratory"
            }
          ]
        },
        "code": {
          "coding": [
            {
              "system": "http://loinc.org",
              "code": "51990-0",
              "display": "Basic Metabolic Panel"
            }
          ]
        },
        "subject": {
          "reference": "Patient/Patient-1138",
          "display": "Donna Lynn Jones"
        },
        "context": {
          "reference": "Encounter/Encounter-1884",
          "display": "Wellness Visit"
        },
        "effectivePeriod": {
          "start": "2006-07-07T00:00:00-04:00",
          "end": "2006-07-07T00:00:00-04:00"
        },
        "issued": "2006-07-07T00:00:00.000-04:00",
        "result": [
          {
            "reference": "Observation/Observation-395376",
            "display": "Record_Glucose"
          },
          {
            "reference": "Observation/Observation-395377",
            "display": "Record_UreaNitrogen"
          },
          {
            "reference": "Observation/Observation-395378",
            "display": "Record_Creatinine"
          },
          {
            "reference": "Observation/Observation-395379",
            "display": "Record_Calcium"
          },
          {
            "reference": "Observation/Observation-395380",
            "display": "Record_Sodium"
          },
          {
            "reference": "Observation/Observation-395381",
            "display": "Record_Potassium"
          },
          {
            "reference": "Observation/Observation-395382",
            "display": "Record_Chloride"
          },
          {
            "reference": "Observation/Observation-395383",
            "display": "Record_CO2"
          }
        ]
      },
      "request": {
        "method": "PUT",
        "url": "http://localhost:8080/cqf-ruler/baseDstu3/DiagnosticReport/DiagnosticReport-395384"
      }
    },
    {
      "fullUrl": "http://localhost:8080/cqf-ruler/baseDstu3/Observation/Observation-395385",
      "resource": {
        "resourceType": "Observation",
        "id": "Observation-395385",
        "meta": {
          "profile": [
            "http://hl7.org/fhir/us/hedis/StructureDefinition/hedis-observation"
          ]
        },
        "status": "final",
        "code": {
          "coding": [
            {
              "system": "http://loinc.org",
              "code": "2093-3",
              "display": "Total Cholesterol"
            }
          ]
        },
        "subject": {
          "reference": "Patient/Patient-1138",
          "display": "Donna Lynn Jones"
        },
        "context": {
          "reference": "Encounter/Encounter-1884",
          "display": "Wellness Visit"
        },
        "effectiveDateTime": "2006-07-07T00:00:00-04:00",
        "performer": [
          {
            "reference": "Practitioner/Practitioner-2532",
            "display": "Chad Espinoza Potter MD"
          }
        ],
        "valueQuantity": {
          "value": 177.3810852873381,
          "unit": "mg/dL"
        }
      },
      "request": {
        "method": "PUT",
        "url": "http://localhost:8080/cqf-ruler/baseDstu3/Observation/Observation-395385"
      }
    },
    {
      "fullUrl": "http://localhost:8080/cqf-ruler/baseDstu3/Observation/Observation-395386",
      "resource": {
        "resourceType": "Observation",
        "id": "Observation-395386",
        "meta": {
          "profile": [
            "http://hl7.org/fhir/us/hedis/StructureDefinition/hedis-observation"
          ]
        },
        "status": "final",
        "code": {
          "coding": [
            {
              "system": "http://loinc.org",
              "code": "2571-8",
              "display": "Triglycerides"
            }
          ]
        },
        "subject": {
          "reference": "Patient/Patient-1138",
          "display": "Donna Lynn Jones"
        },
        "context": {
          "reference": "Encounter/Encounter-1884",
          "display": "Wellness Visit"
        },
        "effectiveDateTime": "2006-07-07T00:00:00-04:00",
        "performer": [
          {
            "reference": "Practitioner/Practitioner-2532",
            "display": "Chad Espinoza Potter MD"
          }
        ],
        "valueQuantity": {
          "value": 46.71465761683616,
          "unit": "mg/dL"
        }
      },
      "request": {
        "method": "PUT",
        "url": "http://localhost:8080/cqf-ruler/baseDstu3/Observation/Observation-395386"
      }
    },
    {
      "fullUrl": "http://localhost:8080/cqf-ruler/baseDstu3/Observation/Observation-395387",
      "resource": {
        "resourceType": "Observation",
        "id": "Observation-395387",
        "meta": {
          "profile": [
            "http://hl7.org/fhir/us/hedis/StructureDefinition/hedis-observation"
          ]
        },
        "status": "final",
        "code": {
          "coding": [
            {
              "system": "http://loinc.org",
              "code": "18262-6",
              "display": "Low Density Lipoprotein Cholesterol"
            }
          ]
        },
        "subject": {
          "reference": "Patient/Patient-1138",
          "display": "Donna Lynn Jones"
        },
        "context": {
          "reference": "Encounter/Encounter-1884",
          "display": "Wellness Visit"
        },
        "effectiveDateTime": "2006-07-07T00:00:00-04:00",
        "performer": [
          {
            "reference": "Practitioner/Practitioner-2532",
            "display": "Chad Espinoza Potter MD"
          }
        ],
        "valueQuantity": {
          "value": 109.14386030952915,
          "unit": "mg/dL"
        }
      },
      "request": {
        "method": "PUT",
        "url": "http://localhost:8080/cqf-ruler/baseDstu3/Observation/Observation-395387"
      }
    },
    {
      "fullUrl": "http://localhost:8080/cqf-ruler/baseDstu3/Observation/Observation-395388",
      "resource": {
        "resourceType": "Observation",
        "id": "Observation-395388",
        "meta": {
          "profile": [
            "http://hl7.org/fhir/us/hedis/StructureDefinition/hedis-observation"
          ]
        },
        "status": "final",
        "code": {
          "coding": [
            {
              "system": "http://loinc.org",
              "code": "2085-9",
              "display": "High Density Lipoprotein Cholesterol"
            }
          ]
        },
        "subject": {
          "reference": "Patient/Patient-1138",
          "display": "Donna Lynn Jones"
        },
        "context": {
          "reference": "Encounter/Encounter-1884",
          "display": "Wellness Visit"
        },
        "effectiveDateTime": "2006-07-07T00:00:00-04:00",
        "performer": [
          {
            "reference": "Practitioner/Practitioner-2532",
            "display": "Chad Espinoza Potter MD"
          }
        ],
        "valueQuantity": {
          "value": 58.89429345444171,
          "unit": "mg/dL"
        }
      },
      "request": {
        "method": "PUT",
        "url": "http://localhost:8080/cqf-ruler/baseDstu3/Observation/Observation-395388"
      }
    },
    {
      "fullUrl": "http://localhost:8080/cqf-ruler/baseDstu3/DiagnosticReport/DiagnosticReport-395389",
      "resource": {
        "resourceType": "DiagnosticReport",
        "id": "DiagnosticReport-395389",
        "meta": {
          "profile": [
            "http://hl7.org/fhir/us/hedis/StructureDefinition/hedis-diagnosticreport"
          ]
        },
        "status": "final",
        "category": {
          "coding": [
            {
              "system": "http://hl7.org/fhir/ValueSet/diagnostic-service-sections",
              "code": "LAB",
              "display": "Laboratory"
            }
          ]
        },
        "code": {
          "coding": [
            {
              "system": "http://loinc.org",
              "code": "57698-3",
              "display": "Lipid Panel"
            }
          ]
        },
        "subject": {
          "reference": "Patient/Patient-1138",
          "display": "Donna Lynn Jones"
        },
        "context": {
          "reference": "Encounter/Encounter-1884",
          "display": "Wellness Visit"
        },
        "effectivePeriod": {
          "start": "2006-07-07T00:00:00-04:00",
          "end": "2006-07-07T00:00:00-04:00"
        },
        "issued": "2006-07-07T00:00:00.000-04:00",
        "result": [
          {
            "reference": "Observation/Observation-395385",
            "display": "Record_Cholesterol"
          },
          {
            "reference": "Observation/Observation-395386",
            "display": "Record_Triglycerides"
          },
          {
            "reference": "Observation/Observation-395387",
            "display": "Record_LDL"
          },
          {
            "reference": "Observation/Observation-395388",
            "display": "Record_HDL"
          }
        ]
      },
      "request": {
        "method": "PUT",
        "url": "http://localhost:8080/cqf-ruler/baseDstu3/DiagnosticReport/DiagnosticReport-395389"
      }
    }
  ]
}