{
  "resourceType": "Bundle",
  "id": "Donna-Lynn-Jones-1138-Encounter-1670",
  "type": "transaction",
  "entry": [
    {
      "fullUrl": "http://localhost:8080/cqf-ruler/baseDstu3Encounter/Encounter-1670",
      "resource": {
        "resourceType": "Encounter",
        "id": "Encounter-1670",
        "status": "finished",
        "class": {
          "system": "http://hl7.org/fhir/encounter-class",
          "code": "inpatient",
          "display": "Inpatient"
        },
        "subject": {
          "reference": "Patient/Patient-1138",
          "display": "Donna Lynn Jones"
        },
        "participant": [
          {
            "period": {
              "start": "2001-12-13T00:08:00-05:00",
              "end": "2001-12-13T01:06:00-05:00"
            },
            "individual": {
              "reference": "Practitioner/Practitioner-2528",
              "display": "Tanya Sally Wheeler MD"
            }
          }
        ],
        "period": {
          "start": "2001-12-13T00:08:00-05:00",
          "end": "2001-12-13T01:06:00-05:00"
        },
        "location": [
          {
            "location": {
              "reference": "Location/Location-1002",
              "display": "Gift of Mercy Hospital"
            }
          }
        ],
        "serviceProvider": {
          "reference": "Organization/Organization-1002",
          "display": "Gift of Mercy Hospital"
        }
      },
      "request": {
        "method": "PUT",
        "url": "http://localhost:8080/cqf-ruler/baseDstu3Encounter/Encounter-1670"
      }
    },
    {
      "fullUrl": "http://localhost:8080/cqf-ruler/baseDstu3Procedure/Procedure-357942",
      "resource": {
        "resourceType": "Procedure",
        "id": "Procedure-357942",
        "status": "completed",
        "code": {
          "coding": [
            {
              "system": "http://www.ama-assn.org/go/cpt",
              "code": "44403",
              "display": "Colonoscopy through stoma; with endoscopic mucosal resection"
            }
          ]
        },
        "subject": {
          "reference": "Patient/Patient-1138",
          "display": "Donna Lynn Jones"
        },
        "context": {
          "reference": "Encounter/Encounter-1670",
          "display": "Colonoscopy_Encounter"
        },
        "performedPeriod": {
          "start": "2001-12-13T01:06:00-05:00",
          "end": "2001-12-13T01:06:00-05:00"
        },
        "performer": [
          {
            "actor": {
              "reference": "Practitioner/Practitioner-2528",
              "display": "Tanya Sally Wheeler MD"
            }
          }
        ],
        "location": {
          "reference": "Location/Location-1002",
          "display": "Gift of Mercy Hospital"
        }
      },
      "request": {
        "method": "PUT",
        "url": "http://localhost:8080/cqf-ruler/baseDstu3Procedure/Procedure-357942"
      }
    },
    {
      "fullUrl": "http://localhost:8080/cqf-ruler/baseDstu3Observation/Observation-357943",
      "resource": {
        "resourceType": "Observation",
        "id": "Observation-357943",
        "status": "final",
        "code": {
          "coding": [
            {
              "system": "http://www.ama-assn.org/go/cpt",
              "code": "44388",
              "display": "Colonoscopy through stoma; diagnostic, including collection of specimen(s) by brushing or washing, when performed (separate procedure)"
            }
          ]
        },
        "subject": {
          "reference": "Patient/Patient-1138",
          "display": "Donna Lynn Jones"
        },
        "context": {
          "reference": "Encounter/Encounter-1670",
          "display": "Colonoscopy_Encounter"
        },
        "effectivePeriod": {
          "start": "2001-12-13T01:06:00-05:00",
          "end": "2001-12-13T01:06:00-05:00"
        },
        "performer": [
          {
            "reference": "Practitioner/Practitioner-2528",
            "display": "Tanya Sally Wheeler MD"
          }
        ],
        "valueString": "NEGATIVE"
      },
      "request": {
        "method": "PUT",
        "url": "http://localhost:8080/cqf-ruler/baseDstu3Observation/Observation-357943"
      }
    },
    {
      "fullUrl": "http://localhost:8080/cqf-ruler/baseDstu3DiagnosticReport/DiagnosticReport-357944",
      "resource": {
        "resourceType": "DiagnosticReport",
        "id": "DiagnosticReport-357944",
        "status": "final",
        "code": {
          "coding": [
            {
              "system": "http://www.ama-assn.org/go/cpt",
              "code": "45381",
              "display": "Colonoscopy, flexible; with directed submucosal injection(s), any substance"
            }
          ]
        },
        "subject": {
          "reference": "Patient/Patient-1138",
          "display": "Donna Lynn Jones"
        },
        "context": {
          "reference": "Encounter/Encounter-1670",
          "display": "Colonoscopy_Encounter"
        },
        "effectivePeriod": {
          "start": "2001-12-13T01:06:00-05:00",
          "end": "2001-12-13T01:06:00-05:00"
        },
        "issued": "2001-12-13T01:06:00.000-05:00",
        "result": [
          {
            "reference": "Observation/Observation-357943",
            "display": "Negative_Colonoscopy_Observation"
          }
        ]
      },
      "request": {
        "method": "PUT",
        "url": "http://localhost:8080/cqf-ruler/baseDstu3DiagnosticReport/DiagnosticReport-357944"
      }
    },
    {
      "fullUrl": "http://localhost:8080/cqf-ruler/baseDstu3Observation/Observation-357947",
      "resource": {
        "resourceType": "Observation",
        "id": "Observation-357947",
        "status": "final",
        "code": {
          "coding": [
            {
              "system": "http://loinc.org",
              "code": "8302-2",
              "display": "Height"
            }
          ]
        },
        "subject": {
          "reference": "Patient/Patient-1138",
          "display": "Donna Lynn Jones"
        },
        "context": {
          "reference": "Encounter/Encounter-1670",
          "display": "Colonoscopy_Encounter"
        },
        "effectiveDateTime": "2001-12-13T00:08:00-05:00",
        "performer": [
          {
            "reference": "Practitioner/Practitioner-2528",
            "display": "Tanya Sally Wheeler MD"
          }
        ],
        "valueQuantity": {
          "value": 163.3,
          "unit": "cm"
        }
      },
      "request": {
        "method": "PUT",
        "url": "http://localhost:8080/cqf-ruler/baseDstu3Observation/Observation-357947"
      }
    },
    {
      "fullUrl": "http://localhost:8080/cqf-ruler/baseDstu3Observation/Observation-357948",
      "resource": {
        "resourceType": "Observation",
        "id": "Observation-357948",
        "status": "final",
        "code": {
          "coding": [
            {
              "system": "http://loinc.org",
              "code": "29463-7",
              "display": "Weight"
            }
          ]
        },
        "subject": {
          "reference": "Patient/Patient-1138",
          "display": "Donna Lynn Jones"
        },
        "context": {
          "reference": "Encounter/Encounter-1670",
          "display": "Colonoscopy_Encounter"
        },
        "effectiveDateTime": "2001-12-13T00:08:00-05:00",
        "performer": [
          {
            "reference": "Practitioner/Practitioner-2528",
            "display": "Tanya Sally Wheeler MD"
          }
        ],
        "valueQuantity": {
          "value": 89.16622772824,
          "unit": "kg"
        }
      },
      "request": {
        "method": "PUT",
        "url": "http://localhost:8080/cqf-ruler/baseDstu3Observation/Observation-357948"
      }
    },
    {
      "fullUrl": "http://localhost:8080/cqf-ruler/baseDstu3Observation/Observation-357949",
      "resource": {
        "resourceType": "Observation",
        "id": "Observation-357949",
        "status": "final",
        "code": {
          "coding": [
            {
              "system": "http://loinc.org",
              "code": "39156-5",
              "display": "BMI"
            }
          ]
        },
        "subject": {
          "reference": "Patient/Patient-1138",
          "display": "Donna Lynn Jones"
        },
        "context": {
          "reference": "Encounter/Encounter-1670",
          "display": "Colonoscopy_Encounter"
        },
        "effectiveDateTime": "2001-12-13T00:08:00-05:00",
        "performer": [
          {
            "reference": "Practitioner/Practitioner-2528",
            "display": "Tanya Sally Wheeler MD"
          }
        ],
        "valueQuantity": {
          "value": 33.43705536275134,
          "unit": "kg/m2"
        }
      },
      "request": {
        "method": "PUT",
        "url": "http://localhost:8080/cqf-ruler/baseDstu3Observation/Observation-357949"
      }
    },
    {
      "fullUrl": "http://localhost:8080/cqf-ruler/baseDstu3Observation/Observation-357950",
      "resource": {
        "resourceType": "Observation",
        "id": "Observation-357950",
        "status": "final",
        "code": {
          "coding": [
            {
              "system": "http://loinc.org",
              "code": "8310-5",
              "display": "Temperature"
            }
          ]
        },
        "subject": {
          "reference": "Patient/Patient-1138",
          "display": "Donna Lynn Jones"
        },
        "context": {
          "reference": "Encounter/Encounter-1670",
          "display": "Colonoscopy_Encounter"
        },
        "effectiveDateTime": "2001-12-13T00:08:00-05:00",
        "performer": [
          {
            "reference": "Practitioner/Practitioner-2528",
            "display": "Tanya Sally Wheeler MD"
          }
        ],
        "valueQuantity": {
          "value": 37.0,
          "unit": "C"
        }
      },
      "request": {
        "method": "PUT",
        "url": "http://localhost:8080/cqf-ruler/baseDstu3Observation/Observation-357950"
      }
    },
    {
      "fullUrl": "http://localhost:8080/cqf-ruler/baseDstu3Observation/Observation-357951",
      "resource": {
        "resourceType": "Observation",
        "id": "Observation-357951",
        "status": "final",
        "code": {
          "coding": [
            {
              "system": "http://loinc.org",
              "code": "8459-0",
              "display": "Systolic Blood Pressure"
            }
          ]
        },
        "subject": {
          "reference": "Patient/Patient-1138",
          "display": "Donna Lynn Jones"
        },
        "context": {
          "reference": "Encounter/Encounter-1670",
          "display": "Colonoscopy_Encounter"
        },
        "effectiveDateTime": "2001-12-13T00:08:00-05:00",
        "performer": [
          {
            "reference": "Practitioner/Practitioner-2528",
            "display": "Tanya Sally Wheeler MD"
          }
        ],
        "valueQuantity": {
          "value": 120.20266758438275,
          "unit": "mmHg"
        }
      },
      "request": {
        "method": "PUT",
        "url": "http://localhost:8080/cqf-ruler/baseDstu3Observation/Observation-357951"
      }
    },
    {
      "fullUrl": "http://localhost:8080/cqf-ruler/baseDstu3Observation/Observation-357952",
      "resource": {
        "resourceType": "Observation",
        "id": "Observation-357952",
        "status": "final",
        "code": {
          "coding": [
            {
              "system": "http://loinc.org",
              "code": "8453-3",
              "display": "Diastolic Blood Pressure"
            }
          ]
        },
        "subject": {
          "reference": "Patient/Patient-1138",
          "display": "Donna Lynn Jones"
        },
        "context": {
          "reference": "Encounter/Encounter-1670",
          "display": "Colonoscopy_Encounter"
        },
        "effectiveDateTime": "2001-12-13T00:08:00-05:00",
        "performer": [
          {
            "reference": "Practitioner/Practitioner-2528",
            "display": "Tanya Sally Wheeler MD"
          }
        ],
        "valueQuantity": {
          "value": 77.16815941440018,
          "unit": "mmHg"
        }
      },
      "request": {
        "method": "PUT",
        "url": "http://localhost:8080/cqf-ruler/baseDstu3Observation/Observation-357952"
      }
    },
    {
      "fullUrl": "http://localhost:8080/cqf-ruler/baseDstu3DiagnosticReport/DiagnosticReport-357946",
      "resource": {
        "resourceType": "DiagnosticReport",
        "id": "DiagnosticReport-357946",
        "status": "final",
        "code": {
          "coding": [
            {
              "system": "http://loinc.org",
              "code": "8716-3",
              "display": "Vital Signs Panel"
            }
          ]
        },
        "subject": {
          "reference": "Patient/Patient-1138",
          "display": "Donna Lynn Jones"
        },
        "context": {
          "reference": "Encounter/Encounter-1670",
          "display": "Colonoscopy_Encounter"
        },
        "effectivePeriod": {
          "start": "2001-12-13T00:08:00-05:00",
          "end": "2001-12-13T00:08:00-05:00"
        },
        "issued": "2001-12-13T00:08:00.000-05:00",
        "result": [
          {
            "reference": "Observation/Observation-357947",
            "display": "Height"
          },
          {
            "reference": "Observation/Observation-357948",
            "display": "Weight"
          },
          {
            "reference": "Observation/Observation-357949",
            "display": "BMI"
          },
          {
            "reference": "Observation/Observation-357950",
            "display": "Temperature"
          },
          {
            "reference": "Observation/Observation-357951",
            "display": "Systolic Blood Pressure"
          },
          {
            "reference": "Observation/Observation-357952",
            "display": "Diastolic Blood Pressure"
          }
        ]
      },
      "request": {
        "method": "PUT",
        "url": "http://localhost:8080/cqf-ruler/baseDstu3DiagnosticReport/DiagnosticReport-357946"
      }
    }
  ]
}