{
  "resourceType": "Bundle",
  "id": "Alice-Vargas-1153-Encounter-1411",
  "type": "transaction",
  "entry": [
    {
      "fullUrl": "http://localhost:8080/cqf-ruler/baseDstu3/Encounter/Encounter-1411",
      "resource": {
        "resourceType": "Encounter",
        "id": "Encounter-1411",
        "status": "finished",
        "class": {
          "system": "http://hl7.org/fhir/encounter-class",
          "code": "outpatient",
          "display": "Inpatient"
        },
        "subject": {
          "reference": "Patient/Patient-1153",
          "display": "Alice Vargas"
        },
        "participant": [
          {
            "period": {
              "start": "2003-09-26T00:00:00-04:00",
              "end": "2003-09-26T00:00:00-04:00"
            },
            "individual": {
              "reference": "Practitioner/Practitioner-2535",
              "display": "Clifton Terrence Carey MD"
            }
          }
        ],
        "period": {
          "start": "2003-09-26T00:00:00-04:00",
          "end": "2003-09-26T00:00:00-04:00"
        },
        "location": [
          {
            "location": {
              "reference": "Location/Location-1102",
              "display": "Pediatric and Adult Medicine"
            }
          }
        ],
        "serviceProvider": {
          "reference": "Organization/Organization-1102",
          "display": "Pediatric and Adult Medicine"
        }
      },
      "request": {
        "method": "PUT",
        "url": "http://localhost:8080/cqf-ruler/baseDstu3/Encounter/Encounter-1411"
      }
    },
    {
      "fullUrl": "http://localhost:8080/cqf-ruler/baseDstu3/Immunization/Immunization-300071",
      "resource": {
        "resourceType": "Immunization",
        "id": "Immunization-300071",
        "status": "completed",
        "notGiven": false,
        "vaccineCode": {
          "coding": [
            {
              "system": "http://hl7.org/fhir/sid/cvx",
              "code": "140",
              "display": "Influenza, seasonal, injectable, preservative free"
            }
          ]
        },
        "patient": {
          "reference": "Patient/Patient-1153",
          "display": "Alice Vargas"
        },
        "date": "2003-09-26T00:00:00-04:00",
        "primarySource": true,
        "location": {
          "reference": "Location/Location-1102",
          "display": "Pediatric and Adult Medicine"
        },
        "practitioner": [
          {
            "actor": {
              "reference": "Practitioner/Practitioner-2535",
              "display": "Clifton Terrence Carey MD"
            }
          }
        ]
      },
      "request": {
        "method": "PUT",
        "url": "http://localhost:8080/cqf-ruler/baseDstu3/Immunization/Immunization-300071"
      }
    },
    {
      "fullUrl": "http://localhost:8080/cqf-ruler/baseDstu3/Immunization/Immunization-300072",
      "resource": {
        "resourceType": "Immunization",
        "id": "Immunization-300072",
        "status": "completed",
        "notGiven": false,
        "vaccineCode": {
          "coding": [
            {
              "system": "http://hl7.org/fhir/sid/cvx",
              "code": "62",
              "display": "HPV, quadrivalent"
            }
          ]
        },
        "patient": {
          "reference": "Patient/Patient-1153",
          "display": "Alice Vargas"
        },
        "date": "2003-09-26T00:00:00-04:00",
        "primarySource": true,
        "location": {
          "reference": "Location/Location-1102",
          "display": "Pediatric and Adult Medicine"
        },
        "practitioner": [
          {
            "actor": {
              "reference": "Practitioner/Practitioner-2535",
              "display": "Clifton Terrence Carey MD"
            }
          }
        ]
      },
      "request": {
        "method": "PUT",
        "url": "http://localhost:8080/cqf-ruler/baseDstu3/Immunization/Immunization-300072"
      }
    },
    {
      "fullUrl": "http://localhost:8080/cqf-ruler/baseDstu3/Observation/Observation-322776",
      "resource": {
        "resourceType": "Observation",
        "id": "Observation-322776",
        "status": "final",
        "code": {
          "coding": [
            {
              "system": "http://loinc.org",
              "code": "8480-6",
              "display": "Systolic blood pressure"
            }
          ]
        },
        "subject": {
          "reference": "Patient/Patient-1153",
          "display": "Alice Vargas"
        },
        "context": {
          "reference": "Encounter/Encounter-1411",
          "display": "Wellness Visit"
        },
        "effectivePeriod": {
          "start": "2003-09-26T00:00:00-04:00",
          "end": "2003-09-26T00:00:00-04:00"
        },
        "performer": [
          {
            "reference": "Practitioner/Practitioner-2535",
            "display": "Clifton Terrence Carey MD"
          }
        ],
        "valueQuantity": {
          "value": 149.27217545916568,
          "unit": "mmHg"
        }
      },
      "request": {
        "method": "PUT",
        "url": "http://localhost:8080/cqf-ruler/baseDstu3/Observation/Observation-322776"
      }
    },
    {
      "fullUrl": "http://localhost:8080/cqf-ruler/baseDstu3/Observation/Observation-322777",
      "resource": {
        "resourceType": "Observation",
        "id": "Observation-322777",
        "status": "final",
        "code": {
          "coding": [
            {
              "system": "http://loinc.org",
              "code": "8462-4",
              "display": "Diastolic blood pressure"
            }
          ]
        },
        "subject": {
          "reference": "Patient/Patient-1153",
          "display": "Alice Vargas"
        },
        "context": {
          "reference": "Encounter/Encounter-1411",
          "display": "Wellness Visit"
        },
        "effectivePeriod": {
          "start": "2003-09-26T00:00:00-04:00",
          "end": "2003-09-26T00:00:00-04:00"
        },
        "performer": [
          {
            "reference": "Practitioner/Practitioner-2535",
            "display": "Clifton Terrence Carey MD"
          }
        ],
        "valueQuantity": {
          "value": 79.62677197669618,
          "unit": "mmHg"
        }
      },
      "request": {
        "method": "PUT",
        "url": "http://localhost:8080/cqf-ruler/baseDstu3/Observation/Observation-322777"
      }
    },
    {
      "fullUrl": "http://localhost:8080/cqf-ruler/baseDstu3/Condition/Condition-322778",
      "resource": {
        "resourceType": "Condition",
        "id": "Condition-322778",
        "clinicalStatus": "active",
        "verificationStatus": "confirmed",
        "code": {
          "coding": [
            {
              "system": "http://snomed.info/sct",
              "code": "276789009",
              "display": "Labile hypertension"
            }
          ]
        },
        "subject": {
          "reference": "Patient/Patient-1153",
          "display": "Alice Vargas"
        },
        "context": {
          "reference": "Encounter/Encounter-1411",
          "display": "Wellness Visit"
        },
        "onsetDateTime": "2003-09-26T00:00:00-04:00",
        "assertedDate": "2003-09-26T00:00:00-04:00",
        "asserter": {
          "reference": "Practitioner/Practitioner-2535",
          "display": "Clifton Terrence Carey MD"
        }
      },
      "request": {
        "method": "PUT",
        "url": "http://localhost:8080/cqf-ruler/baseDstu3/Condition/Condition-322778"
      }
    },
    {
      "fullUrl": "http://localhost:8080/cqf-ruler/baseDstu3/Observation/Observation-322779",
      "resource": {
        "resourceType": "Observation",
        "id": "Observation-322779",
        "status": "final",
        "code": {
          "coding": [
            {
              "system": "http://loinc.org",
              "code": "8302-2",
              "display": "Body Height"
            }
          ]
        },
        "subject": {
          "reference": "Patient/Patient-1153",
          "display": "Alice Vargas"
        },
        "context": {
          "reference": "Encounter/Encounter-1411",
          "display": "Wellness Visit"
        },
        "effectivePeriod": {
          "start": "2003-09-26T00:00:00-04:00",
          "end": "2003-09-26T00:00:00-04:00"
        },
        "performer": [
          {
            "reference": "Practitioner/Practitioner-2535",
            "display": "Clifton Terrence Carey MD"
          }
        ],
        "valueQuantity": {
          "value": 158.4,
          "unit": "cm"
        }
      },
      "request": {
        "method": "PUT",
        "url": "http://localhost:8080/cqf-ruler/baseDstu3/Observation/Observation-322779"
      }
    },
    {
      "fullUrl": "http://localhost:8080/cqf-ruler/baseDstu3/Observation/Observation-322780",
      "resource": {
        "resourceType": "Observation",
        "id": "Observation-322780",
        "status": "final",
        "code": {
          "coding": [
            {
              "system": "http://loinc.org",
              "code": "29463-7",
              "display": "Body Weight"
            }
          ]
        },
        "subject": {
          "reference": "Patient/Patient-1153",
          "display": "Alice Vargas"
        },
        "context": {
          "reference": "Encounter/Encounter-1411",
          "display": "Wellness Visit"
        },
        "effectivePeriod": {
          "start": "2003-09-26T00:00:00-04:00",
          "end": "2003-09-26T00:00:00-04:00"
        },
        "performer": [
          {
            "reference": "Practitioner/Practitioner-2535",
            "display": "Clifton Terrence Carey MD"
          }
        ],
        "valueQuantity": {
          "value": 46.9,
          "unit": "kg"
        }
      },
      "request": {
        "method": "PUT",
        "url": "http://localhost:8080/cqf-ruler/baseDstu3/Observation/Observation-322780"
      }
    },
    {
      "fullUrl": "http://localhost:8080/cqf-ruler/baseDstu3/Observation/Observation-322781",
      "resource": {
        "resourceType": "Observation",
        "id": "Observation-322781",
        "status": "final",
        "code": {
          "coding": [
            {
              "system": "http://loinc.org",
              "code": "39156-5",
              "display": "Body Mass Index"
            }
          ]
        },
        "subject": {
          "reference": "Patient/Patient-1153",
          "display": "Alice Vargas"
        },
        "context": {
          "reference": "Encounter/Encounter-1411",
          "display": "Wellness Visit"
        },
        "effectivePeriod": {
          "start": "2003-09-26T00:00:00-04:00",
          "end": "2003-09-26T00:00:00-04:00"
        },
        "performer": [
          {
            "reference": "Practitioner/Practitioner-2535",
            "display": "Clifton Terrence Carey MD"
          }
        ],
        "valueQuantity": {
          "value": 18.692289052137536,
          "unit": "kg/m2"
        }
      },
      "request": {
        "method": "PUT",
        "url": "http://localhost:8080/cqf-ruler/baseDstu3/Observation/Observation-322781"
      }
    },
    {
      "fullUrl": "http://localhost:8080/cqf-ruler/baseDstu3/Observation/Observation-322784",
      "resource": {
        "resourceType": "Observation",
        "id": "Observation-322784",
        "status": "final",
        "category": [
          {
            "coding": [
              {
                "system": "http://hl7.org/fhir/observation-category",
                "code": "vital-signs",
                "display": "vital-signs"
              }
            ]
          }
        ],
        "code": {
          "coding": [
            {
              "system": "http://loinc.org",
              "code": "55284-4",
              "display": "Blood Pressure"
            }
          ]
        },
        "subject": {
          "reference": "Patient/Patient-1153",
          "display": "Alice Vargas"
        },
        "context": {
          "reference": "Encounter/Encounter-1411",
          "display": "Wellness Visit"
        },
        "effectivePeriod": {
          "start": "2003-09-26T00:00:00-04:00",
          "end": "2003-09-26T00:00:00-04:00"
        },
        "valueQuantity": {
          "value": 79.62677197669618,
          "unit": "mmHg"
        },
        "component": [
          {
            "code": {
              "coding": [
                {
                  "system": "http://loinc.org",
                  "code": "8480-6",
                  "display": "Systolic Blood Pressure"
                }
              ]
            }
          },
          {
            "code": {
              "coding": [
                {
                  "system": "http://loinc.org",
                  "code": "8462-4",
                  "display": "Diastolic Blood Pressure"
                }
              ]
            }
          }
        ]
      },
      "request": {
        "method": "PUT",
        "url": "http://localhost:8080/cqf-ruler/baseDstu3/Observation/Observation-322784"
      }
    },
    {
      "fullUrl": "http://localhost:8080/cqf-ruler/baseDstu3/Observation/Observation-322786",
      "resource": {
        "resourceType": "Observation",
        "id": "Observation-322786",
        "status": "final",
        "code": {
          "coding": [
            {
              "system": "http://loinc.org",
              "code": "8302-2",
              "display": "Height"
            }
          ]
        },
        "subject": {
          "reference": "Patient/Patient-1153",
          "display": "Alice Vargas"
        },
        "context": {
          "reference": "Encounter/Encounter-1411",
          "display": "Wellness Visit"
        },
        "effectiveDateTime": "2003-09-26T00:00:00-04:00",
        "performer": [
          {
            "reference": "Practitioner/Practitioner-2535",
            "display": "Clifton Terrence Carey MD"
          }
        ],
        "valueQuantity": {
          "value": 158.4,
          "unit": "cm"
        }
      },
      "request": {
        "method": "PUT",
        "url": "http://localhost:8080/cqf-ruler/baseDstu3/Observation/Observation-322786"
      }
    },
    {
      "fullUrl": "http://localhost:8080/cqf-ruler/baseDstu3/Observation/Observation-322787",
      "resource": {
        "resourceType": "Observation",
        "id": "Observation-322787",
        "status": "final",
        "code": {
          "coding": [
            {
              "system": "http://loinc.org",
              "code": "29463-7",
              "display": "Weight"
            }
          ]
        },
        "subject": {
          "reference": "Patient/Patient-1153",
          "display": "Alice Vargas"
        },
        "context": {
          "reference": "Encounter/Encounter-1411",
          "display": "Wellness Visit"
        },
        "effectiveDateTime": "2003-09-26T00:00:00-04:00",
        "performer": [
          {
            "reference": "Practitioner/Practitioner-2535",
            "display": "Clifton Terrence Carey MD"
          }
        ],
        "valueQuantity": {
          "value": 46.9,
          "unit": "kg"
        }
      },
      "request": {
        "method": "PUT",
        "url": "http://localhost:8080/cqf-ruler/baseDstu3/Observation/Observation-322787"
      }
    },
    {
      "fullUrl": "http://localhost:8080/cqf-ruler/baseDstu3/Observation/Observation-322788",
      "resource": {
        "resourceType": "Observation",
        "id": "Observation-322788",
        "status": "final",
        "code": {
          "coding": [
            {
              "system": "http://loinc.org",
              "code": "39156-5",
              "display": "BMI"
            }
          ]
        },
        "subject": {
          "reference": "Patient/Patient-1153",
          "display": "Alice Vargas"
        },
        "context": {
          "reference": "Encounter/Encounter-1411",
          "display": "Wellness Visit"
        },
        "effectiveDateTime": "2003-09-26T00:00:00-04:00",
        "performer": [
          {
            "reference": "Practitioner/Practitioner-2535",
            "display": "Clifton Terrence Carey MD"
          }
        ],
        "valueQuantity": {
          "value": 18.692289052137536,
          "unit": "kg/m2"
        }
      },
      "request": {
        "method": "PUT",
        "url": "http://localhost:8080/cqf-ruler/baseDstu3/Observation/Observation-322788"
      }
    },
    {
      "fullUrl": "http://localhost:8080/cqf-ruler/baseDstu3/Observation/Observation-322789",
      "resource": {
        "resourceType": "Observation",
        "id": "Observation-322789",
        "status": "final",
        "code": {
          "coding": [
            {
              "system": "http://loinc.org",
              "code": "8310-5",
              "display": "Temperature"
            }
          ]
        },
        "subject": {
          "reference": "Patient/Patient-1153",
          "display": "Alice Vargas"
        },
        "context": {
          "reference": "Encounter/Encounter-1411",
          "display": "Wellness Visit"
        },
        "effectiveDateTime": "2003-09-26T00:00:00-04:00",
        "performer": [
          {
            "reference": "Practitioner/Practitioner-2535",
            "display": "Clifton Terrence Carey MD"
          }
        ],
        "valueQuantity": {
          "value": 37.0,
          "unit": "C"
        }
      },
      "request": {
        "method": "PUT",
        "url": "http://localhost:8080/cqf-ruler/baseDstu3/Observation/Observation-322789"
      }
    },
    {
      "fullUrl": "http://localhost:8080/cqf-ruler/baseDstu3/Observation/Observation-322790",
      "resource": {
        "resourceType": "Observation",
        "id": "Observation-322790",
        "status": "final",
        "code": {
          "coding": [
            {
              "system": "http://loinc.org",
              "code": "8459-0",
              "display": "Systolic Blood Pressure"
            }
          ]
        },
        "subject": {
          "reference": "Patient/Patient-1153",
          "display": "Alice Vargas"
        },
        "context": {
          "reference": "Encounter/Encounter-1411",
          "display": "Wellness Visit"
        },
        "effectiveDateTime": "2003-09-26T00:00:00-04:00",
        "performer": [
          {
            "reference": "Practitioner/Practitioner-2535",
            "display": "Clifton Terrence Carey MD"
          }
        ],
        "valueQuantity": {
          "value": 149.27217545916568,
          "unit": "mmHg"
        }
      },
      "request": {
        "method": "PUT",
        "url": "http://localhost:8080/cqf-ruler/baseDstu3/Observation/Observation-322790"
      }
    },
    {
      "fullUrl": "http://localhost:8080/cqf-ruler/baseDstu3/Observation/Observation-322791",
      "resource": {
        "resourceType": "Observation",
        "id": "Observation-322791",
        "status": "final",
        "code": {
          "coding": [
            {
              "system": "http://loinc.org",
              "code": "8453-3",
              "display": "Diastolic Blood Pressure"
            }
          ]
        },
        "subject": {
          "reference": "Patient/Patient-1153",
          "display": "Alice Vargas"
        },
        "context": {
          "reference": "Encounter/Encounter-1411",
          "display": "Wellness Visit"
        },
        "effectiveDateTime": "2003-09-26T00:00:00-04:00",
        "performer": [
          {
            "reference": "Practitioner/Practitioner-2535",
            "display": "Clifton Terrence Carey MD"
          }
        ],
        "valueQuantity": {
          "value": 79.62677197669618,
          "unit": "mmHg"
        }
      },
      "request": {
        "method": "PUT",
        "url": "http://localhost:8080/cqf-ruler/baseDstu3/Observation/Observation-322791"
      }
    },
    {
      "fullUrl": "http://localhost:8080/cqf-ruler/baseDstu3/DiagnosticReport/DiagnosticReport-322785",
      "resource": {
        "resourceType": "DiagnosticReport",
        "id": "DiagnosticReport-322785",
        "status": "final",
        "code": {
          "coding": [
            {
              "system": "http://loinc.org",
              "code": "8716-3",
              "display": "Vital Signs Panel"
            }
          ]
        },
        "subject": {
          "reference": "Patient/Patient-1153",
          "display": "Alice Vargas"
        },
        "context": {
          "reference": "Encounter/Encounter-1411",
          "display": "Wellness Visit"
        },
        "effectivePeriod": {
          "start": "2003-09-26T00:00:00-04:00",
          "end": "2003-09-26T00:00:00-04:00"
        },
        "issued": "2003-09-26T00:00:00.000-04:00",
        "result": [
          {
            "reference": "Observation/Observation-322786",
            "display": "Height"
          },
          {
            "reference": "Observation/Observation-322787",
            "display": "Weight"
          },
          {
            "reference": "Observation/Observation-322788",
            "display": "BMI"
          },
          {
            "reference": "Observation/Observation-322789",
            "display": "Temperature"
          },
          {
            "reference": "Observation/Observation-322790",
            "display": "Systolic Blood Pressure"
          },
          {
            "reference": "Observation/Observation-322791",
            "display": "Diastolic Blood Pressure"
          }
        ]
      },
      "request": {
        "method": "PUT",
        "url": "http://localhost:8080/cqf-ruler/baseDstu3/DiagnosticReport/DiagnosticReport-322785"
      }
    }
  ]
}