{
  "resourceType": "Bundle",
  "id": "Ramon-Combs-Payne-6496-Encounter-2335",
  "type": "transaction",
  "entry": [
    {
      "fullUrl": "http://localhost:8080/cqf-ruler/baseDstu3/Encounter/Encounter-2335",
      "resource": {
        "resourceType": "Encounter",
        "id": "Encounter-2335",
        "status": "finished",
        "class": {
          "system": "http://hl7.org/fhir/encounter-class",
          "code": "outpatient",
          "display": "Inpatient"
        },
        "subject": {
          "reference": "Patient/Patient-6496",
          "display": "Ramon Combs Payne"
        },
        "participant": [
          {
            "period": {
              "start": "2012-09-21T00:00:00-04:00",
              "end": "2012-09-21T00:00:00-04:00"
            },
            "individual": {
              "reference": "Practitioner/Practitioner-2533",
              "display": "Lena Dickerson Ballard MD"
            }
          }
        ],
        "period": {
          "start": "2012-09-21T00:00:00-04:00",
          "end": "2012-09-21T00:00:00-04:00"
        },
        "location": [
          {
            "location": {
              "reference": "Location/Location-1106",
              "display": "Cranston Family Medical"
            }
          }
        ],
        "serviceProvider": {
          "reference": "Organization/Organization-1106",
          "display": "Cranston Family Medical"
        }
      },
      "request": {
        "method": "PUT",
        "url": "http://localhost:8080/cqf-ruler/baseDstu3/Encounter/Encounter-2335"
      }
    },
    {
      "fullUrl": "http://localhost:8080/cqf-ruler/baseDstu3/Immunization/Immunization-507865",
      "resource": {
        "resourceType": "Immunization",
        "id": "Immunization-507865",
        "status": "completed",
        "notGiven": false,
        "vaccineCode": {
          "coding": [
            {
              "system": "http://hl7.org/fhir/sid/cvx",
              "code": "140",
              "display": "Influenza, seasonal, injectable, preservative free"
            }
          ]
        },
        "patient": {
          "reference": "Patient/Patient-6496",
          "display": "Ramon Combs Payne"
        },
        "date": "2012-09-21T00:00:00-04:00",
        "primarySource": true,
        "location": {
          "reference": "Location/Location-1106",
          "display": "Cranston Family Medical"
        },
        "practitioner": [
          {
            "actor": {
              "reference": "Practitioner/Practitioner-2533",
              "display": "Lena Dickerson Ballard MD"
            }
          }
        ]
      },
      "request": {
        "method": "PUT",
        "url": "http://localhost:8080/cqf-ruler/baseDstu3/Immunization/Immunization-507865"
      }
    },
    {
      "fullUrl": "http://localhost:8080/cqf-ruler/baseDstu3/Observation/Observation-534906",
      "resource": {
        "resourceType": "Observation",
        "id": "Observation-534906",
        "status": "final",
        "code": {
          "coding": [
            {
              "system": "http://loinc.org",
              "code": "8480-6",
              "display": "Systolic blood pressure"
            }
          ]
        },
        "subject": {
          "reference": "Patient/Patient-6496",
          "display": "Ramon Combs Payne"
        },
        "context": {
          "reference": "Encounter/Encounter-2335",
          "display": "Wellness Visit"
        },
        "effectivePeriod": {
          "start": "2012-09-21T00:00:00-04:00",
          "end": "2012-09-21T00:00:00-04:00"
        },
        "performer": [
          {
            "reference": "Practitioner/Practitioner-2533",
            "display": "Lena Dickerson Ballard MD"
          }
        ],
        "valueQuantity": {
          "value": 108.03949866778578,
          "unit": "mmHg"
        }
      },
      "request": {
        "method": "PUT",
        "url": "http://localhost:8080/cqf-ruler/baseDstu3/Observation/Observation-534906"
      }
    },
    {
      "fullUrl": "http://localhost:8080/cqf-ruler/baseDstu3/Observation/Observation-534907",
      "resource": {
        "resourceType": "Observation",
        "id": "Observation-534907",
        "status": "final",
        "code": {
          "coding": [
            {
              "system": "http://loinc.org",
              "code": "8462-4",
              "display": "Diastolic blood pressure"
            }
          ]
        },
        "subject": {
          "reference": "Patient/Patient-6496",
          "display": "Ramon Combs Payne"
        },
        "context": {
          "reference": "Encounter/Encounter-2335",
          "display": "Wellness Visit"
        },
        "effectivePeriod": {
          "start": "2012-09-21T00:00:00-04:00",
          "end": "2012-09-21T00:00:00-04:00"
        },
        "performer": [
          {
            "reference": "Practitioner/Practitioner-2533",
            "display": "Lena Dickerson Ballard MD"
          }
        ],
        "valueQuantity": {
          "value": 93.80879448316537,
          "unit": "mmHg"
        }
      },
      "request": {
        "method": "PUT",
        "url": "http://localhost:8080/cqf-ruler/baseDstu3/Observation/Observation-534907"
      }
    },
    {
      "fullUrl": "http://localhost:8080/cqf-ruler/baseDstu3/Condition/Condition-534908",
      "resource": {
        "resourceType": "Condition",
        "id": "Condition-534908",
        "clinicalStatus": "active",
        "verificationStatus": "confirmed",
        "code": {
          "coding": [
            {
              "system": "http://snomed.info/sct",
              "code": "65518004",
              "display": "Labile diastolic hypertension"
            }
          ]
        },
        "subject": {
          "reference": "Patient/Patient-6496",
          "display": "Ramon Combs Payne"
        },
        "context": {
          "reference": "Encounter/Encounter-2335",
          "display": "Wellness Visit"
        },
        "onsetDateTime": "2012-09-21T00:00:00-04:00",
        "assertedDate": "2012-09-21T00:00:00-04:00",
        "asserter": {
          "reference": "Practitioner/Practitioner-2533",
          "display": "Lena Dickerson Ballard MD"
        }
      },
      "request": {
        "method": "PUT",
        "url": "http://localhost:8080/cqf-ruler/baseDstu3/Condition/Condition-534908"
      }
    },
    {
      "fullUrl": "http://localhost:8080/cqf-ruler/baseDstu3/Observation/Observation-534909",
      "resource": {
        "resourceType": "Observation",
        "id": "Observation-534909",
        "status": "final",
        "code": {
          "coding": [
            {
              "system": "http://loinc.org",
              "code": "8302-2",
              "display": "Body Height"
            }
          ]
        },
        "subject": {
          "reference": "Patient/Patient-6496",
          "display": "Ramon Combs Payne"
        },
        "context": {
          "reference": "Encounter/Encounter-2335",
          "display": "Wellness Visit"
        },
        "effectivePeriod": {
          "start": "2012-09-21T00:00:00-04:00",
          "end": "2012-09-21T00:00:00-04:00"
        },
        "performer": [
          {
            "reference": "Practitioner/Practitioner-2533",
            "display": "Lena Dickerson Ballard MD"
          }
        ],
        "valueQuantity": {
          "value": 139.6,
          "unit": "cm"
        }
      },
      "request": {
        "method": "PUT",
        "url": "http://localhost:8080/cqf-ruler/baseDstu3/Observation/Observation-534909"
      }
    },
    {
      "fullUrl": "http://localhost:8080/cqf-ruler/baseDstu3/Observation/Observation-534910",
      "resource": {
        "resourceType": "Observation",
        "id": "Observation-534910",
        "status": "final",
        "code": {
          "coding": [
            {
              "system": "http://loinc.org",
              "code": "29463-7",
              "display": "Body Weight"
            }
          ]
        },
        "subject": {
          "reference": "Patient/Patient-6496",
          "display": "Ramon Combs Payne"
        },
        "context": {
          "reference": "Encounter/Encounter-2335",
          "display": "Wellness Visit"
        },
        "effectivePeriod": {
          "start": "2012-09-21T00:00:00-04:00",
          "end": "2012-09-21T00:00:00-04:00"
        },
        "performer": [
          {
            "reference": "Practitioner/Practitioner-2533",
            "display": "Lena Dickerson Ballard MD"
          }
        ],
        "valueQuantity": {
          "value": 28.641954379188743,
          "unit": "kg"
        }
      },
      "request": {
        "method": "PUT",
        "url": "http://localhost:8080/cqf-ruler/baseDstu3/Observation/Observation-534910"
      }
    },
    {
      "fullUrl": "http://localhost:8080/cqf-ruler/baseDstu3/Observation/Observation-534911",
      "resource": {
        "resourceType": "Observation",
        "id": "Observation-534911",
        "status": "final",
        "code": {
          "coding": [
            {
              "system": "http://loinc.org",
              "code": "39156-5",
              "display": "Body Mass Index"
            }
          ]
        },
        "subject": {
          "reference": "Patient/Patient-6496",
          "display": "Ramon Combs Payne"
        },
        "context": {
          "reference": "Encounter/Encounter-2335",
          "display": "Wellness Visit"
        },
        "effectivePeriod": {
          "start": "2012-09-21T00:00:00-04:00",
          "end": "2012-09-21T00:00:00-04:00"
        },
        "performer": [
          {
            "reference": "Practitioner/Practitioner-2533",
            "display": "Lena Dickerson Ballard MD"
          }
        ],
        "valueQuantity": {
          "value": 14.697105513906264,
          "unit": "kg/m2"
        }
      },
      "request": {
        "method": "PUT",
        "url": "http://localhost:8080/cqf-ruler/baseDstu3/Observation/Observation-534911"
      }
    },
    {
      "fullUrl": "http://localhost:8080/cqf-ruler/baseDstu3/Observation/Observation-534914",
      "resource": {
        "resourceType": "Observation",
        "id": "Observation-534914",
        "status": "final",
        "category": [
          {
            "coding": [
              {
                "system": "http://hl7.org/fhir/observation-category",
                "code": "vital-signs",
                "display": "vital-signs"
              }
            ]
          }
        ],
        "code": {
          "coding": [
            {
              "system": "http://loinc.org",
              "code": "55284-4",
              "display": "Blood Pressure"
            }
          ]
        },
        "subject": {
          "reference": "Patient/Patient-6496",
          "display": "Ramon Combs Payne"
        },
        "context": {
          "reference": "Encounter/Encounter-2335",
          "display": "Wellness Visit"
        },
        "effectivePeriod": {
          "start": "2012-09-21T00:00:00-04:00",
          "end": "2012-09-21T00:00:00-04:00"
        },
        "valueQuantity": {
          "value": 93.80879448316537,
          "unit": "mmHg"
        },
        "component": [
          {
            "code": {
              "coding": [
                {
                  "system": "http://loinc.org",
                  "code": "8480-6",
                  "display": "Systolic Blood Pressure"
                }
              ]
            }
          },
          {
            "code": {
              "coding": [
                {
                  "system": "http://loinc.org",
                  "code": "8462-4",
                  "display": "Diastolic Blood Pressure"
                }
              ]
            }
          }
        ]
      },
      "request": {
        "method": "PUT",
        "url": "http://localhost:8080/cqf-ruler/baseDstu3/Observation/Observation-534914"
      }
    },
    {
      "fullUrl": "http://localhost:8080/cqf-ruler/baseDstu3/Observation/Observation-534916",
      "resource": {
        "resourceType": "Observation",
        "id": "Observation-534916",
        "status": "final",
        "code": {
          "coding": [
            {
              "system": "http://loinc.org",
              "code": "8302-2",
              "display": "Height"
            }
          ]
        },
        "subject": {
          "reference": "Patient/Patient-6496",
          "display": "Ramon Combs Payne"
        },
        "context": {
          "reference": "Encounter/Encounter-2335",
          "display": "Wellness Visit"
        },
        "effectiveDateTime": "2012-09-21T00:00:00-04:00",
        "performer": [
          {
            "reference": "Practitioner/Practitioner-2533",
            "display": "Lena Dickerson Ballard MD"
          }
        ],
        "valueQuantity": {
          "value": 139.6,
          "unit": "cm"
        }
      },
      "request": {
        "method": "PUT",
        "url": "http://localhost:8080/cqf-ruler/baseDstu3/Observation/Observation-534916"
      }
    },
    {
      "fullUrl": "http://localhost:8080/cqf-ruler/baseDstu3/Observation/Observation-534917",
      "resource": {
        "resourceType": "Observation",
        "id": "Observation-534917",
        "status": "final",
        "code": {
          "coding": [
            {
              "system": "http://loinc.org",
              "code": "29463-7",
              "display": "Weight"
            }
          ]
        },
        "subject": {
          "reference": "Patient/Patient-6496",
          "display": "Ramon Combs Payne"
        },
        "context": {
          "reference": "Encounter/Encounter-2335",
          "display": "Wellness Visit"
        },
        "effectiveDateTime": "2012-09-21T00:00:00-04:00",
        "performer": [
          {
            "reference": "Practitioner/Practitioner-2533",
            "display": "Lena Dickerson Ballard MD"
          }
        ],
        "valueQuantity": {
          "value": 28.641954379188743,
          "unit": "kg"
        }
      },
      "request": {
        "method": "PUT",
        "url": "http://localhost:8080/cqf-ruler/baseDstu3/Observation/Observation-534917"
      }
    },
    {
      "fullUrl": "http://localhost:8080/cqf-ruler/baseDstu3/Observation/Observation-534918",
      "resource": {
        "resourceType": "Observation",
        "id": "Observation-534918",
        "status": "final",
        "code": {
          "coding": [
            {
              "system": "http://loinc.org",
              "code": "39156-5",
              "display": "BMI"
            }
          ]
        },
        "subject": {
          "reference": "Patient/Patient-6496",
          "display": "Ramon Combs Payne"
        },
        "context": {
          "reference": "Encounter/Encounter-2335",
          "display": "Wellness Visit"
        },
        "effectiveDateTime": "2012-09-21T00:00:00-04:00",
        "performer": [
          {
            "reference": "Practitioner/Practitioner-2533",
            "display": "Lena Dickerson Ballard MD"
          }
        ],
        "valueQuantity": {
          "value": 14.697105513906264,
          "unit": "kg/m2"
        }
      },
      "request": {
        "method": "PUT",
        "url": "http://localhost:8080/cqf-ruler/baseDstu3/Observation/Observation-534918"
      }
    },
    {
      "fullUrl": "http://localhost:8080/cqf-ruler/baseDstu3/Observation/Observation-534919",
      "resource": {
        "resourceType": "Observation",
        "id": "Observation-534919",
        "status": "final",
        "code": {
          "coding": [
            {
              "system": "http://loinc.org",
              "code": "8310-5",
              "display": "Temperature"
            }
          ]
        },
        "subject": {
          "reference": "Patient/Patient-6496",
          "display": "Ramon Combs Payne"
        },
        "context": {
          "reference": "Encounter/Encounter-2335",
          "display": "Wellness Visit"
        },
        "effectiveDateTime": "2012-09-21T00:00:00-04:00",
        "performer": [
          {
            "reference": "Practitioner/Practitioner-2533",
            "display": "Lena Dickerson Ballard MD"
          }
        ],
        "valueQuantity": {
          "value": 37.0,
          "unit": "C"
        }
      },
      "request": {
        "method": "PUT",
        "url": "http://localhost:8080/cqf-ruler/baseDstu3/Observation/Observation-534919"
      }
    },
    {
      "fullUrl": "http://localhost:8080/cqf-ruler/baseDstu3/Observation/Observation-534920",
      "resource": {
        "resourceType": "Observation",
        "id": "Observation-534920",
        "status": "final",
        "code": {
          "coding": [
            {
              "system": "http://loinc.org",
              "code": "8459-0",
              "display": "Systolic Blood Pressure"
            }
          ]
        },
        "subject": {
          "reference": "Patient/Patient-6496",
          "display": "Ramon Combs Payne"
        },
        "context": {
          "reference": "Encounter/Encounter-2335",
          "display": "Wellness Visit"
        },
        "effectiveDateTime": "2012-09-21T00:00:00-04:00",
        "performer": [
          {
            "reference": "Practitioner/Practitioner-2533",
            "display": "Lena Dickerson Ballard MD"
          }
        ],
        "valueQuantity": {
          "value": 108.03949866778578,
          "unit": "mmHg"
        }
      },
      "request": {
        "method": "PUT",
        "url": "http://localhost:8080/cqf-ruler/baseDstu3/Observation/Observation-534920"
      }
    },
    {
      "fullUrl": "http://localhost:8080/cqf-ruler/baseDstu3/Observation/Observation-534921",
      "resource": {
        "resourceType": "Observation",
        "id": "Observation-534921",
        "status": "final",
        "code": {
          "coding": [
            {
              "system": "http://loinc.org",
              "code": "8453-3",
              "display": "Diastolic Blood Pressure"
            }
          ]
        },
        "subject": {
          "reference": "Patient/Patient-6496",
          "display": "Ramon Combs Payne"
        },
        "context": {
          "reference": "Encounter/Encounter-2335",
          "display": "Wellness Visit"
        },
        "effectiveDateTime": "2012-09-21T00:00:00-04:00",
        "performer": [
          {
            "reference": "Practitioner/Practitioner-2533",
            "display": "Lena Dickerson Ballard MD"
          }
        ],
        "valueQuantity": {
          "value": 93.80879448316537,
          "unit": "mmHg"
        }
      },
      "request": {
        "method": "PUT",
        "url": "http://localhost:8080/cqf-ruler/baseDstu3/Observation/Observation-534921"
      }
    },
    {
      "fullUrl": "http://localhost:8080/cqf-ruler/baseDstu3/DiagnosticReport/DiagnosticReport-534915",
      "resource": {
        "resourceType": "DiagnosticReport",
        "id": "DiagnosticReport-534915",
        "status": "final",
        "code": {
          "coding": [
            {
              "system": "http://loinc.org",
              "code": "8716-3",
              "display": "Vital Signs Panel"
            }
          ]
        },
        "subject": {
          "reference": "Patient/Patient-6496",
          "display": "Ramon Combs Payne"
        },
        "context": {
          "reference": "Encounter/Encounter-2335",
          "display": "Wellness Visit"
        },
        "effectivePeriod": {
          "start": "2012-09-21T00:00:00-04:00",
          "end": "2012-09-21T00:00:00-04:00"
        },
        "issued": "2012-09-21T00:00:00.000-04:00",
        "result": [
          {
            "reference": "Observation/Observation-534916",
            "display": "Height"
          },
          {
            "reference": "Observation/Observation-534917",
            "display": "Weight"
          },
          {
            "reference": "Observation/Observation-534918",
            "display": "BMI"
          },
          {
            "reference": "Observation/Observation-534919",
            "display": "Temperature"
          },
          {
            "reference": "Observation/Observation-534920",
            "display": "Systolic Blood Pressure"
          },
          {
            "reference": "Observation/Observation-534921",
            "display": "Diastolic Blood Pressure"
          }
        ]
      },
      "request": {
        "method": "PUT",
        "url": "http://localhost:8080/cqf-ruler/baseDstu3/DiagnosticReport/DiagnosticReport-534915"
      }
    }
  ]
}