{
  "resourceType": "Bundle",
  "id": "Ramon-Combs-Payne-6496-Encounter-1387",
  "type": "transaction",
  "entry": [
    {
      "fullUrl": "http://localhost:8080/cqf-ruler/baseDstu3/Encounter/Encounter-1387",
      "resource": {
        "resourceType": "Encounter",
        "id": "Encounter-1387",
        "status": "finished",
        "class": {
          "system": "http://hl7.org/fhir/encounter-class",
          "code": "outpatient",
          "display": "Inpatient"
        },
        "subject": {
          "reference": "Patient/Patient-6496",
          "display": "Ramon Combs Payne"
        },
        "participant": [
          {
            "period": {
              "start": "2002-07-14T11:00:00-04:00",
              "end": "2002-07-14T11:00:00-04:00"
            },
            "individual": {
              "reference": "Practitioner/Practitioner-2533",
              "display": "Lena Dickerson Ballard MD"
            }
          }
        ],
        "period": {
          "start": "2002-07-14T11:00:00-04:00",
          "end": "2002-07-14T11:00:00-04:00"
        },
        "location": [
          {
            "location": {
              "reference": "Location/Location-1106",
              "display": "Cranston Family Medical"
            }
          }
        ],
        "serviceProvider": {
          "reference": "Organization/Organization-1106",
          "display": "Cranston Family Medical"
        }
      },
      "request": {
        "method": "PUT",
        "url": "http://localhost:8080/cqf-ruler/baseDstu3/Encounter/Encounter-1387"
      }
    },
    {
      "fullUrl": "http://localhost:8080/cqf-ruler/baseDstu3/Immunization/Immunization-294389",
      "resource": {
        "resourceType": "Immunization",
        "id": "Immunization-294389",
        "status": "completed",
        "notGiven": false,
        "vaccineCode": {
          "coding": [
            {
              "system": "http://hl7.org/fhir/sid/cvx",
              "code": "08",
              "display": "Hep B, adolescent or pediatric"
            }
          ]
        },
        "patient": {
          "reference": "Patient/Patient-6496",
          "display": "Ramon Combs Payne"
        },
        "date": "2002-07-14T11:00:00-04:00",
        "primarySource": true,
        "location": {
          "reference": "Location/Location-1106",
          "display": "Cranston Family Medical"
        },
        "practitioner": [
          {
            "actor": {
              "reference": "Practitioner/Practitioner-2533",
              "display": "Lena Dickerson Ballard MD"
            }
          }
        ]
      },
      "request": {
        "method": "PUT",
        "url": "http://localhost:8080/cqf-ruler/baseDstu3/Immunization/Immunization-294389"
      }
    },
    {
      "fullUrl": "http://localhost:8080/cqf-ruler/baseDstu3/Observation/Observation-296347",
      "resource": {
        "resourceType": "Observation",
        "id": "Observation-296347",
        "status": "final",
        "code": {
          "coding": [
            {
              "system": "http://loinc.org",
              "code": "8480-6",
              "display": "Systolic blood pressure"
            }
          ]
        },
        "subject": {
          "reference": "Patient/Patient-6496",
          "display": "Ramon Combs Payne"
        },
        "context": {
          "reference": "Encounter/Encounter-1387",
          "display": "Wellness Visit"
        },
        "effectivePeriod": {
          "start": "2002-07-14T11:00:00-04:00",
          "end": "2002-07-14T11:00:00-04:00"
        },
        "performer": [
          {
            "reference": "Practitioner/Practitioner-2533",
            "display": "Lena Dickerson Ballard MD"
          }
        ],
        "valueQuantity": {
          "value": 131.0477784894625,
          "unit": "mmHg"
        }
      },
      "request": {
        "method": "PUT",
        "url": "http://localhost:8080/cqf-ruler/baseDstu3/Observation/Observation-296347"
      }
    },
    {
      "fullUrl": "http://localhost:8080/cqf-ruler/baseDstu3/Observation/Observation-296348",
      "resource": {
        "resourceType": "Observation",
        "id": "Observation-296348",
        "status": "final",
        "code": {
          "coding": [
            {
              "system": "http://loinc.org",
              "code": "8462-4",
              "display": "Diastolic blood pressure"
            }
          ]
        },
        "subject": {
          "reference": "Patient/Patient-6496",
          "display": "Ramon Combs Payne"
        },
        "context": {
          "reference": "Encounter/Encounter-1387",
          "display": "Wellness Visit"
        },
        "effectivePeriod": {
          "start": "2002-07-14T11:00:00-04:00",
          "end": "2002-07-14T11:00:00-04:00"
        },
        "performer": [
          {
            "reference": "Practitioner/Practitioner-2533",
            "display": "Lena Dickerson Ballard MD"
          }
        ],
        "valueQuantity": {
          "value": 82.25688966004043,
          "unit": "mmHg"
        }
      },
      "request": {
        "method": "PUT",
        "url": "http://localhost:8080/cqf-ruler/baseDstu3/Observation/Observation-296348"
      }
    },
    {
      "fullUrl": "http://localhost:8080/cqf-ruler/baseDstu3/Observation/Observation-296349",
      "resource": {
        "resourceType": "Observation",
        "id": "Observation-296349",
        "status": "final",
        "code": {
          "coding": [
            {
              "system": "http://loinc.org",
              "code": "8302-2",
              "display": "Body Height"
            }
          ]
        },
        "subject": {
          "reference": "Patient/Patient-6496",
          "display": "Ramon Combs Payne"
        },
        "context": {
          "reference": "Encounter/Encounter-1387",
          "display": "Wellness Visit"
        },
        "effectivePeriod": {
          "start": "2002-07-14T11:00:00-04:00",
          "end": "2002-07-14T11:00:00-04:00"
        },
        "performer": [
          {
            "reference": "Practitioner/Practitioner-2533",
            "display": "Lena Dickerson Ballard MD"
          }
        ],
        "valueQuantity": {
          "value": 52.7,
          "unit": "cm"
        }
      },
      "request": {
        "method": "PUT",
        "url": "http://localhost:8080/cqf-ruler/baseDstu3/Observation/Observation-296349"
      }
    },
    {
      "fullUrl": "http://localhost:8080/cqf-ruler/baseDstu3/Observation/Observation-296350",
      "resource": {
        "resourceType": "Observation",
        "id": "Observation-296350",
        "status": "final",
        "code": {
          "coding": [
            {
              "system": "http://loinc.org",
              "code": "29463-7",
              "display": "Body Weight"
            }
          ]
        },
        "subject": {
          "reference": "Patient/Patient-6496",
          "display": "Ramon Combs Payne"
        },
        "context": {
          "reference": "Encounter/Encounter-1387",
          "display": "Wellness Visit"
        },
        "effectivePeriod": {
          "start": "2002-07-14T11:00:00-04:00",
          "end": "2002-07-14T11:00:00-04:00"
        },
        "performer": [
          {
            "reference": "Practitioner/Practitioner-2533",
            "display": "Lena Dickerson Ballard MD"
          }
        ],
        "valueQuantity": {
          "value": 4.9,
          "unit": "kg"
        }
      },
      "request": {
        "method": "PUT",
        "url": "http://localhost:8080/cqf-ruler/baseDstu3/Observation/Observation-296350"
      }
    },
    {
      "fullUrl": "http://localhost:8080/cqf-ruler/baseDstu3/Observation/Observation-296353",
      "resource": {
        "resourceType": "Observation",
        "id": "Observation-296353",
        "status": "final",
        "category": [
          {
            "coding": [
              {
                "system": "http://hl7.org/fhir/observation-category",
                "code": "vital-signs",
                "display": "vital-signs"
              }
            ]
          }
        ],
        "code": {
          "coding": [
            {
              "system": "http://loinc.org",
              "code": "55284-4",
              "display": "Blood Pressure"
            }
          ]
        },
        "subject": {
          "reference": "Patient/Patient-6496",
          "display": "Ramon Combs Payne"
        },
        "context": {
          "reference": "Encounter/Encounter-1387",
          "display": "Wellness Visit"
        },
        "effectivePeriod": {
          "start": "2002-07-14T11:00:00-04:00",
          "end": "2002-07-14T11:00:00-04:00"
        },
        "valueQuantity": {
          "value": 82.25688966004043,
          "unit": "mmHg"
        },
        "component": [
          {
            "code": {
              "coding": [
                {
                  "system": "http://loinc.org",
                  "code": "8480-6",
                  "display": "Systolic Blood Pressure"
                }
              ]
            }
          },
          {
            "code": {
              "coding": [
                {
                  "system": "http://loinc.org",
                  "code": "8462-4",
                  "display": "Diastolic Blood Pressure"
                }
              ]
            }
          }
        ]
      },
      "request": {
        "method": "PUT",
        "url": "http://localhost:8080/cqf-ruler/baseDstu3/Observation/Observation-296353"
      }
    },
    {
      "fullUrl": "http://localhost:8080/cqf-ruler/baseDstu3/Observation/Observation-296355",
      "resource": {
        "resourceType": "Observation",
        "id": "Observation-296355",
        "status": "final",
        "code": {
          "coding": [
            {
              "system": "http://loinc.org",
              "code": "8302-2",
              "display": "Height"
            }
          ]
        },
        "subject": {
          "reference": "Patient/Patient-6496",
          "display": "Ramon Combs Payne"
        },
        "context": {
          "reference": "Encounter/Encounter-1387",
          "display": "Wellness Visit"
        },
        "effectiveDateTime": "2002-07-14T11:00:00-04:00",
        "performer": [
          {
            "reference": "Practitioner/Practitioner-2533",
            "display": "Lena Dickerson Ballard MD"
          }
        ],
        "valueQuantity": {
          "value": 52.7,
          "unit": "cm"
        }
      },
      "request": {
        "method": "PUT",
        "url": "http://localhost:8080/cqf-ruler/baseDstu3/Observation/Observation-296355"
      }
    },
    {
      "fullUrl": "http://localhost:8080/cqf-ruler/baseDstu3/Observation/Observation-296356",
      "resource": {
        "resourceType": "Observation",
        "id": "Observation-296356",
        "status": "final",
        "code": {
          "coding": [
            {
              "system": "http://loinc.org",
              "code": "29463-7",
              "display": "Weight"
            }
          ]
        },
        "subject": {
          "reference": "Patient/Patient-6496",
          "display": "Ramon Combs Payne"
        },
        "context": {
          "reference": "Encounter/Encounter-1387",
          "display": "Wellness Visit"
        },
        "effectiveDateTime": "2002-07-14T11:00:00-04:00",
        "performer": [
          {
            "reference": "Practitioner/Practitioner-2533",
            "display": "Lena Dickerson Ballard MD"
          }
        ],
        "valueQuantity": {
          "value": 4.9,
          "unit": "kg"
        }
      },
      "request": {
        "method": "PUT",
        "url": "http://localhost:8080/cqf-ruler/baseDstu3/Observation/Observation-296356"
      }
    },
    {
      "fullUrl": "http://localhost:8080/cqf-ruler/baseDstu3/Observation/Observation-296357",
      "resource": {
        "resourceType": "Observation",
        "id": "Observation-296357",
        "status": "final",
        "code": {
          "coding": [
            {
              "system": "http://loinc.org",
              "code": "39156-5",
              "display": "BMI"
            }
          ]
        },
        "subject": {
          "reference": "Patient/Patient-6496",
          "display": "Ramon Combs Payne"
        },
        "context": {
          "reference": "Encounter/Encounter-1387",
          "display": "Wellness Visit"
        },
        "effectiveDateTime": "2002-07-14T11:00:00-04:00",
        "performer": [
          {
            "reference": "Practitioner/Practitioner-2533",
            "display": "Lena Dickerson Ballard MD"
          }
        ],
        "valueQuantity": {
          "value": 17.643098128031284,
          "unit": "kg/m2"
        }
      },
      "request": {
        "method": "PUT",
        "url": "http://localhost:8080/cqf-ruler/baseDstu3/Observation/Observation-296357"
      }
    },
    {
      "fullUrl": "http://localhost:8080/cqf-ruler/baseDstu3/Observation/Observation-296358",
      "resource": {
        "resourceType": "Observation",
        "id": "Observation-296358",
        "status": "final",
        "code": {
          "coding": [
            {
              "system": "http://loinc.org",
              "code": "8310-5",
              "display": "Temperature"
            }
          ]
        },
        "subject": {
          "reference": "Patient/Patient-6496",
          "display": "Ramon Combs Payne"
        },
        "context": {
          "reference": "Encounter/Encounter-1387",
          "display": "Wellness Visit"
        },
        "effectiveDateTime": "2002-07-14T11:00:00-04:00",
        "performer": [
          {
            "reference": "Practitioner/Practitioner-2533",
            "display": "Lena Dickerson Ballard MD"
          }
        ],
        "valueQuantity": {
          "value": 37.0,
          "unit": "C"
        }
      },
      "request": {
        "method": "PUT",
        "url": "http://localhost:8080/cqf-ruler/baseDstu3/Observation/Observation-296358"
      }
    },
    {
      "fullUrl": "http://localhost:8080/cqf-ruler/baseDstu3/Observation/Observation-296359",
      "resource": {
        "resourceType": "Observation",
        "id": "Observation-296359",
        "status": "final",
        "code": {
          "coding": [
            {
              "system": "http://loinc.org",
              "code": "8459-0",
              "display": "Systolic Blood Pressure"
            }
          ]
        },
        "subject": {
          "reference": "Patient/Patient-6496",
          "display": "Ramon Combs Payne"
        },
        "context": {
          "reference": "Encounter/Encounter-1387",
          "display": "Wellness Visit"
        },
        "effectiveDateTime": "2002-07-14T11:00:00-04:00",
        "performer": [
          {
            "reference": "Practitioner/Practitioner-2533",
            "display": "Lena Dickerson Ballard MD"
          }
        ],
        "valueQuantity": {
          "value": 131.0477784894625,
          "unit": "mmHg"
        }
      },
      "request": {
        "method": "PUT",
        "url": "http://localhost:8080/cqf-ruler/baseDstu3/Observation/Observation-296359"
      }
    },
    {
      "fullUrl": "http://localhost:8080/cqf-ruler/baseDstu3/Observation/Observation-296360",
      "resource": {
        "resourceType": "Observation",
        "id": "Observation-296360",
        "status": "final",
        "code": {
          "coding": [
            {
              "system": "http://loinc.org",
              "code": "8453-3",
              "display": "Diastolic Blood Pressure"
            }
          ]
        },
        "subject": {
          "reference": "Patient/Patient-6496",
          "display": "Ramon Combs Payne"
        },
        "context": {
          "reference": "Encounter/Encounter-1387",
          "display": "Wellness Visit"
        },
        "effectiveDateTime": "2002-07-14T11:00:00-04:00",
        "performer": [
          {
            "reference": "Practitioner/Practitioner-2533",
            "display": "Lena Dickerson Ballard MD"
          }
        ],
        "valueQuantity": {
          "value": 82.25688966004043,
          "unit": "mmHg"
        }
      },
      "request": {
        "method": "PUT",
        "url": "http://localhost:8080/cqf-ruler/baseDstu3/Observation/Observation-296360"
      }
    },
    {
      "fullUrl": "http://localhost:8080/cqf-ruler/baseDstu3/DiagnosticReport/DiagnosticReport-296354",
      "resource": {
        "resourceType": "DiagnosticReport",
        "id": "DiagnosticReport-296354",
        "status": "final",
        "code": {
          "coding": [
            {
              "system": "http://loinc.org",
              "code": "8716-3",
              "display": "Vital Signs Panel"
            }
          ]
        },
        "subject": {
          "reference": "Patient/Patient-6496",
          "display": "Ramon Combs Payne"
        },
        "context": {
          "reference": "Encounter/Encounter-1387",
          "display": "Wellness Visit"
        },
        "effectivePeriod": {
          "start": "2002-07-14T11:00:00-04:00",
          "end": "2002-07-14T11:00:00-04:00"
        },
        "issued": "2002-07-14T11:00:00.000-04:00",
        "result": [
          {
            "reference": "Observation/Observation-296355",
            "display": "Height"
          },
          {
            "reference": "Observation/Observation-296356",
            "display": "Weight"
          },
          {
            "reference": "Observation/Observation-296357",
            "display": "BMI"
          },
          {
            "reference": "Observation/Observation-296358",
            "display": "Temperature"
          },
          {
            "reference": "Observation/Observation-296359",
            "display": "Systolic Blood Pressure"
          },
          {
            "reference": "Observation/Observation-296360",
            "display": "Diastolic Blood Pressure"
          }
        ]
      },
      "request": {
        "method": "PUT",
        "url": "http://localhost:8080/cqf-ruler/baseDstu3/DiagnosticReport/DiagnosticReport-296354"
      }
    }
  ]
}