{
  "resourceType": "Bundle",
  "id": "Eduardo Joel Tucker Jr-6508-Encounter-2426",
  "type": "transaction",
  "entry": [
    {
      "fullUrl": "http://localhost:8080/cqf-ruler/baseDstu3/Encounter/Encounter-2426",
      "resource": {
        "resourceType": "Encounter",
        "id": "Encounter-2426",
        "status": "finished",
        "class": {
          "system": "http://hl7.org/fhir/encounter-class",
          "code": "outpatient",
          "display": "Inpatient"
        },
        "subject": {
          "reference": "Patient/Patient-6508",
          "display": "Eduardo Joel Tucker Jr"
        },
        "participant": [
          {
            "period": {
              "start": "2013-06-16T10:00:00-04:00",
              "end": "2013-06-16T10:00:00-04:00"
            },
            "individual": {
              "reference": "Practitioner/Practitioner-2525",
              "display": "Kyle Christian Ballard MD"
            }
          }
        ],
        "period": {
          "start": "2013-06-16T10:00:00-04:00",
          "end": "2013-06-16T10:00:00-04:00"
        },
        "location": [
          {
            "location": {
              "reference": "Location/Location-1104",
              "display": "Bay Area Family Practice"
            }
          }
        ],
        "serviceProvider": {
          "reference": "Organization/Organization-1104",
          "display": "Bay Area Family Practice"
        }
      },
      "request": {
        "method": "PUT",
        "url": "http://localhost:8080/cqf-ruler/baseDstu3/Encounter/Encounter-2426"
      }
    },
    {
      "fullUrl": "http://localhost:8080/cqf-ruler/baseDstu3/Immunization/Immunization-509822",
      "resource": {
        "resourceType": "Immunization",
        "id": "Immunization-509822",
        "status": "completed",
        "notGiven": false,
        "vaccineCode": {
          "coding": [
            {
              "system": "http://hl7.org/fhir/sid/cvx",
              "code": "140",
              "display": "Influenza, seasonal, injectable, preservative free"
            }
          ]
        },
        "patient": {
          "reference": "Patient/Patient-6508",
          "display": "Eduardo Joel Tucker Jr"
        },
        "date": "2013-06-16T10:00:00-04:00",
        "primarySource": true,
        "location": {
          "reference": "Location/Location-1104",
          "display": "Bay Area Family Practice"
        },
        "practitioner": [
          {
            "actor": {
              "reference": "Practitioner/Practitioner-2525",
              "display": "Kyle Christian Ballard MD"
            }
          }
        ]
      },
      "request": {
        "method": "PUT",
        "url": "http://localhost:8080/cqf-ruler/baseDstu3/Immunization/Immunization-509822"
      }
    },
    {
      "fullUrl": "http://localhost:8080/cqf-ruler/baseDstu3/Observation/Observation-535275",
      "resource": {
        "resourceType": "Observation",
        "id": "Observation-535275",
        "status": "final",
        "code": {
          "coding": [
            {
              "system": "http://loinc.org",
              "code": "8302-2",
              "display": "Height"
            }
          ]
        },
        "subject": {
          "reference": "Patient/Patient-6508",
          "display": "Eduardo Joel Tucker Jr"
        },
        "context": {
          "reference": "Encounter/Encounter-2426",
          "display": "Bay Area Family Practice"
        },
        "effectiveDateTime": "2013-06-16T10:00:00-04:00",
        "performer": [
          {
            "reference": "Practitioner/Practitioner-2525",
            "display": "Kyle Christian Ballard MD"
          }
        ],
        "valueQuantity": {
          "value": 115.1,
          "unit": "cm"
        }
      },
      "request": {
        "method": "PUT",
        "url": "http://localhost:8080/cqf-ruler/baseDstu3/Observation/Observation-535275"
      }
    },
    {
      "fullUrl": "http://localhost:8080/cqf-ruler/baseDstu3/Observation/Observation-535276",
      "resource": {
        "resourceType": "Observation",
        "id": "Observation-535276",
        "status": "final",
        "code": {
          "coding": [
            {
              "system": "http://loinc.org",
              "code": "29463-7",
              "display": "Weight"
            }
          ]
        },
        "subject": {
          "reference": "Patient/Patient-6508",
          "display": "Eduardo Joel Tucker Jr"
        },
        "context": {
          "reference": "Encounter/Encounter-2426",
          "display": "Bay Area Family Practice"
        },
        "effectiveDateTime": "2013-06-16T10:00:00-04:00",
        "performer": [
          {
            "reference": "Practitioner/Practitioner-2525",
            "display": "Kyle Christian Ballard MD"
          }
        ],
        "valueQuantity": {
          "value": 0.0,
          "unit": "kg"
        }
      },
      "request": {
        "method": "PUT",
        "url": "http://localhost:8080/cqf-ruler/baseDstu3/Observation/Observation-535276"
      }
    },
    {
      "fullUrl": "http://localhost:8080/cqf-ruler/baseDstu3/Observation/Observation-535277",
      "resource": {
        "resourceType": "Observation",
        "id": "Observation-535277",
        "status": "final",
        "code": {
          "coding": [
            {
              "system": "http://loinc.org",
              "code": "39156-5",
              "display": "BMI"
            }
          ]
        },
        "subject": {
          "reference": "Patient/Patient-6508",
          "display": "Eduardo Joel Tucker Jr"
        },
        "context": {
          "reference": "Encounter/Encounter-2426",
          "display": "Bay Area Family Practice"
        },
        "effectiveDateTime": "2013-06-16T10:00:00-04:00",
        "performer": [
          {
            "reference": "Practitioner/Practitioner-2525",
            "display": "Kyle Christian Ballard MD"
          }
        ],
        "valueQuantity": {
          "value": 0.0,
          "unit": "kg/m2"
        }
      },
      "request": {
        "method": "PUT",
        "url": "http://localhost:8080/cqf-ruler/baseDstu3/Observation/Observation-535277"
      }
    },
    {
      "fullUrl": "http://localhost:8080/cqf-ruler/baseDstu3/Observation/Observation-535278",
      "resource": {
        "resourceType": "Observation",
        "id": "Observation-535278",
        "status": "final",
        "code": {
          "coding": [
            {
              "system": "http://loinc.org",
              "code": "8310-5",
              "display": "Temperature"
            }
          ]
        },
        "subject": {
          "reference": "Patient/Patient-6508",
          "display": "Eduardo Joel Tucker Jr"
        },
        "context": {
          "reference": "Encounter/Encounter-2426",
          "display": "Bay Area Family Practice"
        },
        "effectiveDateTime": "2013-06-16T10:00:00-04:00",
        "performer": [
          {
            "reference": "Practitioner/Practitioner-2525",
            "display": "Kyle Christian Ballard MD"
          }
        ],
        "valueQuantity": {
          "value": 37.0,
          "unit": "C"
        }
      },
      "request": {
        "method": "PUT",
        "url": "http://localhost:8080/cqf-ruler/baseDstu3/Observation/Observation-535278"
      }
    },
    {
      "fullUrl": "http://localhost:8080/cqf-ruler/baseDstu3/Observation/Observation-535279",
      "resource": {
        "resourceType": "Observation",
        "id": "Observation-535279",
        "status": "final",
        "code": {
          "coding": [
            {
              "system": "http://loinc.org",
              "code": "8459-0",
              "display": "Systolic Blood Pressure"
            }
          ]
        },
        "subject": {
          "reference": "Patient/Patient-6508",
          "display": "Eduardo Joel Tucker Jr"
        },
        "context": {
          "reference": "Encounter/Encounter-2426",
          "display": "Bay Area Family Practice"
        },
        "effectiveDateTime": "2013-06-16T10:00:00-04:00",
        "performer": [
          {
            "reference": "Practitioner/Practitioner-2525",
            "display": "Kyle Christian Ballard MD"
          }
        ],
        "valueQuantity": {
          "value": 119.14702668613042,
          "unit": "mmHg"
        }
      },
      "request": {
        "method": "PUT",
        "url": "http://localhost:8080/cqf-ruler/baseDstu3/Observation/Observation-535279"
      }
    },
    {
      "fullUrl": "http://localhost:8080/cqf-ruler/baseDstu3/Observation/Observation-535280",
      "resource": {
        "resourceType": "Observation",
        "id": "Observation-535280",
        "status": "final",
        "code": {
          "coding": [
            {
              "system": "http://loinc.org",
              "code": "8453-3",
              "display": "Diastolic Blood Pressure"
            }
          ]
        },
        "subject": {
          "reference": "Patient/Patient-6508",
          "display": "Eduardo Joel Tucker Jr"
        },
        "context": {
          "reference": "Encounter/Encounter-2426",
          "display": "Bay Area Family Practice"
        },
        "effectiveDateTime": "2013-06-16T10:00:00-04:00",
        "performer": [
          {
            "reference": "Practitioner/Practitioner-2525",
            "display": "Kyle Christian Ballard MD"
          }
        ],
        "valueQuantity": {
          "value": 81.88725244294533,
          "unit": "mmHg"
        }
      },
      "request": {
        "method": "PUT",
        "url": "http://localhost:8080/cqf-ruler/baseDstu3/Observation/Observation-535280"
      }
    },
    {
      "fullUrl": "http://localhost:8080/cqf-ruler/baseDstu3/DiagnosticReport/DiagnosticReport-535274",
      "resource": {
        "resourceType": "DiagnosticReport",
        "id": "DiagnosticReport-535274",
        "status": "final",
        "code": {
          "coding": [
            {
              "system": "http://loinc.org",
              "code": "8716-3",
              "display": "Vital Signs Panel"
            }
          ]
        },
        "subject": {
          "reference": "Patient/Patient-6508",
          "display": "Eduardo Joel Tucker Jr"
        },
        "context": {
          "reference": "Encounter/Encounter-2426",
          "display": "Bay Area Family Practice"
        },
        "effectivePeriod": {
          "start": "2013-06-16T10:00:00-04:00",
          "end": "2013-06-16T10:00:00-04:00"
        },
        "issued": "2013-06-16T10:00:00.000-04:00",
        "result": [
          {
            "reference": "Observation/Observation-535275",
            "display": "Height"
          },
          {
            "reference": "Observation/Observation-535276",
            "display": "Weight"
          },
          {
            "reference": "Observation/Observation-535277",
            "display": "BMI"
          },
          {
            "reference": "Observation/Observation-535278",
            "display": "Temperature"
          },
          {
            "reference": "Observation/Observation-535279",
            "display": "Systolic Blood Pressure"
          },
          {
            "reference": "Observation/Observation-535280",
            "display": "Diastolic Blood Pressure"
          }
        ]
      },
      "request": {
        "method": "PUT",
        "url": "http://localhost:8080/cqf-ruler/baseDstu3/DiagnosticReport/DiagnosticReport-535274"
      }
    }
  ]
}