{
  "resourceType": "Bundle",
  "id": "Eduardo Joel Tucker Jr-6508-Encounter-2870",
  "type": "transaction",
  "entry": [
    {
      "fullUrl": "http://localhost:8080/cqf-ruler/baseDstu3/Encounter/Encounter-2870",
      "resource": {
        "resourceType": "Encounter",
        "id": "Encounter-2870",
        "status": "finished",
        "class": {
          "system": "http://hl7.org/fhir/encounter-class",
          "code": "outpatient",
          "display": "Inpatient"
        },
        "subject": {
          "reference": "Patient/Patient-6508",
          "display": "Eduardo Joel Tucker Jr"
        },
        "participant": [
          {
            "period": {
              "start": "2017-06-15T10:00:00-04:00",
              "end": "2017-06-15T10:00:00-04:00"
            },
            "individual": {
              "reference": "Practitioner/Practitioner-2525",
              "display": "Kyle Christian Ballard MD"
            }
          }
        ],
        "period": {
          "start": "2017-06-15T10:00:00-04:00",
          "end": "2017-06-15T10:00:00-04:00"
        },
        "location": [
          {
            "location": {
              "reference": "Location/Location-1104",
              "display": "Bay Area Family Practice"
            }
          }
        ],
        "serviceProvider": {
          "reference": "Organization/Organization-1104",
          "display": "Bay Area Family Practice"
        }
      },
      "request": {
        "method": "PUT",
        "url": "http://localhost:8080/cqf-ruler/baseDstu3/Encounter/Encounter-2870"
      }
    },
    {
      "fullUrl": "http://localhost:8080/cqf-ruler/baseDstu3/Immunization/Immunization-613073",
      "resource": {
        "resourceType": "Immunization",
        "id": "Immunization-613073",
        "status": "completed",
        "notGiven": false,
        "vaccineCode": {
          "coding": [
            {
              "system": "http://hl7.org/fhir/sid/cvx",
              "code": "140",
              "display": "Influenza, seasonal, injectable, preservative free"
            }
          ]
        },
        "patient": {
          "reference": "Patient/Patient-6508",
          "display": "Eduardo Joel Tucker Jr"
        },
        "date": "2017-06-15T10:00:00-04:00",
        "primarySource": true,
        "location": {
          "reference": "Location/Location-1104",
          "display": "Bay Area Family Practice"
        },
        "practitioner": [
          {
            "actor": {
              "reference": "Practitioner/Practitioner-2525",
              "display": "Kyle Christian Ballard MD"
            }
          }
        ]
      },
      "request": {
        "method": "PUT",
        "url": "http://localhost:8080/cqf-ruler/baseDstu3/Immunization/Immunization-613073"
      }
    },
    {
      "fullUrl": "http://localhost:8080/cqf-ruler/baseDstu3/Observation/Observation-639241",
      "resource": {
        "resourceType": "Observation",
        "id": "Observation-639241",
        "status": "final",
        "code": {
          "coding": [
            {
              "system": "http://loinc.org",
              "code": "8302-2",
              "display": "Height"
            }
          ]
        },
        "subject": {
          "reference": "Patient/Patient-6508",
          "display": "Eduardo Joel Tucker Jr"
        },
        "context": {
          "reference": "Encounter/Encounter-2870",
          "display": "Bay Area Family Practice"
        },
        "effectiveDateTime": "2017-06-15T10:00:00-04:00",
        "performer": [
          {
            "reference": "Practitioner/Practitioner-2525",
            "display": "Kyle Christian Ballard MD"
          }
        ],
        "valueQuantity": {
          "value": 138.0,
          "unit": "cm"
        }
      },
      "request": {
        "method": "PUT",
        "url": "http://localhost:8080/cqf-ruler/baseDstu3/Observation/Observation-639241"
      }
    },
    {
      "fullUrl": "http://localhost:8080/cqf-ruler/baseDstu3/Observation/Observation-639242",
      "resource": {
        "resourceType": "Observation",
        "id": "Observation-639242",
        "status": "final",
        "code": {
          "coding": [
            {
              "system": "http://loinc.org",
              "code": "29463-7",
              "display": "Weight"
            }
          ]
        },
        "subject": {
          "reference": "Patient/Patient-6508",
          "display": "Eduardo Joel Tucker Jr"
        },
        "context": {
          "reference": "Encounter/Encounter-2870",
          "display": "Bay Area Family Practice"
        },
        "effectiveDateTime": "2017-06-15T10:00:00-04:00",
        "performer": [
          {
            "reference": "Practitioner/Practitioner-2525",
            "display": "Kyle Christian Ballard MD"
          }
        ],
        "valueQuantity": {
          "value": 0.0,
          "unit": "kg"
        }
      },
      "request": {
        "method": "PUT",
        "url": "http://localhost:8080/cqf-ruler/baseDstu3/Observation/Observation-639242"
      }
    },
    {
      "fullUrl": "http://localhost:8080/cqf-ruler/baseDstu3/Observation/Observation-639243",
      "resource": {
        "resourceType": "Observation",
        "id": "Observation-639243",
        "status": "final",
        "code": {
          "coding": [
            {
              "system": "http://loinc.org",
              "code": "39156-5",
              "display": "BMI"
            }
          ]
        },
        "subject": {
          "reference": "Patient/Patient-6508",
          "display": "Eduardo Joel Tucker Jr"
        },
        "context": {
          "reference": "Encounter/Encounter-2870",
          "display": "Bay Area Family Practice"
        },
        "effectiveDateTime": "2017-06-15T10:00:00-04:00",
        "performer": [
          {
            "reference": "Practitioner/Practitioner-2525",
            "display": "Kyle Christian Ballard MD"
          }
        ],
        "valueQuantity": {
          "value": 0.0,
          "unit": "kg/m2"
        }
      },
      "request": {
        "method": "PUT",
        "url": "http://localhost:8080/cqf-ruler/baseDstu3/Observation/Observation-639243"
      }
    },
    {
      "fullUrl": "http://localhost:8080/cqf-ruler/baseDstu3/Observation/Observation-639244",
      "resource": {
        "resourceType": "Observation",
        "id": "Observation-639244",
        "status": "final",
        "code": {
          "coding": [
            {
              "system": "http://loinc.org",
              "code": "8310-5",
              "display": "Temperature"
            }
          ]
        },
        "subject": {
          "reference": "Patient/Patient-6508",
          "display": "Eduardo Joel Tucker Jr"
        },
        "context": {
          "reference": "Encounter/Encounter-2870",
          "display": "Bay Area Family Practice"
        },
        "effectiveDateTime": "2017-06-15T10:00:00-04:00",
        "performer": [
          {
            "reference": "Practitioner/Practitioner-2525",
            "display": "Kyle Christian Ballard MD"
          }
        ],
        "valueQuantity": {
          "value": 37.0,
          "unit": "C"
        }
      },
      "request": {
        "method": "PUT",
        "url": "http://localhost:8080/cqf-ruler/baseDstu3/Observation/Observation-639244"
      }
    },
    {
      "fullUrl": "http://localhost:8080/cqf-ruler/baseDstu3/Observation/Observation-639245",
      "resource": {
        "resourceType": "Observation",
        "id": "Observation-639245",
        "status": "final",
        "code": {
          "coding": [
            {
              "system": "http://loinc.org",
              "code": "8459-0",
              "display": "Systolic Blood Pressure"
            }
          ]
        },
        "subject": {
          "reference": "Patient/Patient-6508",
          "display": "Eduardo Joel Tucker Jr"
        },
        "context": {
          "reference": "Encounter/Encounter-2870",
          "display": "Bay Area Family Practice"
        },
        "effectiveDateTime": "2017-06-15T10:00:00-04:00",
        "performer": [
          {
            "reference": "Practitioner/Practitioner-2525",
            "display": "Kyle Christian Ballard MD"
          }
        ],
        "valueQuantity": {
          "value": 119.00910152405856,
          "unit": "mmHg"
        }
      },
      "request": {
        "method": "PUT",
        "url": "http://localhost:8080/cqf-ruler/baseDstu3/Observation/Observation-639245"
      }
    },
    {
      "fullUrl": "http://localhost:8080/cqf-ruler/baseDstu3/Observation/Observation-639246",
      "resource": {
        "resourceType": "Observation",
        "id": "Observation-639246",
        "status": "final",
        "code": {
          "coding": [
            {
              "system": "http://loinc.org",
              "code": "8453-3",
              "display": "Diastolic Blood Pressure"
            }
          ]
        },
        "subject": {
          "reference": "Patient/Patient-6508",
          "display": "Eduardo Joel Tucker Jr"
        },
        "context": {
          "reference": "Encounter/Encounter-2870",
          "display": "Bay Area Family Practice"
        },
        "effectiveDateTime": "2017-06-15T10:00:00-04:00",
        "performer": [
          {
            "reference": "Practitioner/Practitioner-2525",
            "display": "Kyle Christian Ballard MD"
          }
        ],
        "valueQuantity": {
          "value": 82.40187295944894,
          "unit": "mmHg"
        }
      },
      "request": {
        "method": "PUT",
        "url": "http://localhost:8080/cqf-ruler/baseDstu3/Observation/Observation-639246"
      }
    },
    {
      "fullUrl": "http://localhost:8080/cqf-ruler/baseDstu3/DiagnosticReport/DiagnosticReport-639240",
      "resource": {
        "resourceType": "DiagnosticReport",
        "id": "DiagnosticReport-639240",
        "status": "final",
        "code": {
          "coding": [
            {
              "system": "http://loinc.org",
              "code": "8716-3",
              "display": "Vital Signs Panel"
            }
          ]
        },
        "subject": {
          "reference": "Patient/Patient-6508",
          "display": "Eduardo Joel Tucker Jr"
        },
        "context": {
          "reference": "Encounter/Encounter-2870",
          "display": "Bay Area Family Practice"
        },
        "effectivePeriod": {
          "start": "2017-06-15T10:00:00-04:00",
          "end": "2017-06-15T10:00:00-04:00"
        },
        "issued": "2017-06-15T10:00:00.000-04:00",
        "result": [
          {
            "reference": "Observation/Observation-639241",
            "display": "Height"
          },
          {
            "reference": "Observation/Observation-639242",
            "display": "Weight"
          },
          {
            "reference": "Observation/Observation-639243",
            "display": "BMI"
          },
          {
            "reference": "Observation/Observation-639244",
            "display": "Temperature"
          },
          {
            "reference": "Observation/Observation-639245",
            "display": "Systolic Blood Pressure"
          },
          {
            "reference": "Observation/Observation-639246",
            "display": "Diastolic Blood Pressure"
          }
        ]
      },
      "request": {
        "method": "PUT",
        "url": "http://localhost:8080/cqf-ruler/baseDstu3/DiagnosticReport/DiagnosticReport-639240"
      }
    }
  ]
}