{
  "resourceType": "Bundle",
  "id": "William-Yung-Chen-1123-Encounter-4165",
  "type": "transaction",
  "entry": [
    {
      "fullUrl": "http://localhost:8080/cqf-ruler/baseDstu3/Encounter/Encounter-4165",
      "resource": {
        "resourceType": "Encounter",
        "id": "Encounter-4165",
        "meta": {
          "profile": [
            "http://hl7.org/fhir/us/hedis/StructureDefinition/hedis-encounter"
          ]
        },
        "status": "finished",
        "class": {
          "system": "http://hl7.org/fhir/encounter-class",
          "code": "outpatient",
          "display": "Outpatient"
        },
        "type": [
          {
            "coding": [
              {
                "system": "http://www.ama-assn.org/go/cpt",
                "code": "99397",
                "display": "PER PM REEVAL EST PAT 65+ YR"
              }
            ]
          }
        ],
        "subject": {
          "reference": "Patient/Patient-1123",
          "display": "William Yung Chen"
        },
        "participant": [
          {
            "period": {
              "start": "2017-08-13T01:00:00-04:00",
              "end": "2017-08-13T01:00:00-04:00"
            },
            "individual": {
              "reference": "Practitioner/Practitioner-2519",
              "display": "Stanley Jason Garrett MD"
            }
          }
        ],
        "period": {
          "start": "2017-08-13T01:00:00-04:00",
          "end": "2017-08-13T01:00:00-04:00"
        },
        "reason": [
          {
            "coding": [
              {
                "system": "http://snomed.info/sct",
                "code": "310495003",
                "display": "Mild depression (disorder)"
              }
            ]
          }
        ],
        "location": [
          {
            "location": {
              "reference": "Location/Location-1104",
              "display": "Bay Area Family Practice"
            }
          }
        ],
        "serviceProvider": {
          "reference": "Organization/Organization-1104",
          "display": "Bay Area Family Practice"
        }
      },
      "request": {
        "method": "PUT",
        "url": "http://localhost:8080/cqf-ruler/baseDstu3/Encounter/Encounter-4165"
      }
    },
    {
      "fullUrl": "http://localhost:8080/cqf-ruler/baseDstu3/Procedure/Procedure-686394",
      "resource": {
        "resourceType": "Procedure",
        "id": "Procedure-686394",
        "meta": {
          "profile": [
            "http://hl7.org/fhir/us/hedis/StructureDefinition/hedis-procedure"
          ]
        },
        "status": "completed",
        "code": {
          "coding": [
            {
              "system": "http://test",
              "code": "2.16.840.1.113883.3.67.1.101.11.723",
              "display": "2.16.840.1.113883.3.67.1.101.11.723"
            }
          ]
        },
        "subject": {
          "reference": "Patient/Patient-1123",
          "display": "William Yung Chen"
        },
        "context": {
          "reference": "Encounter/Encounter-4165",
          "display": "DRR_Encounter"
        },
        "performedPeriod": {
          "start": "2017-08-13T01:00:00-04:00",
          "end": "2017-08-13T01:00:00-04:00"
        },
        "performer": [
          {
            "actor": {
              "reference": "Practitioner/Practitioner-2519",
              "display": "Stanley Jason Garrett MD"
            }
          }
        ],
        "location": {
          "reference": "Location/Location-1104",
          "display": "Bay Area Family Practice"
        }
      },
      "request": {
        "method": "PUT",
        "url": "http://localhost:8080/cqf-ruler/baseDstu3/Procedure/Procedure-686394"
      }
    },
    {
      "fullUrl": "http://localhost:8080/cqf-ruler/baseDstu3/Observation/Observation-686395",
      "resource": {
        "resourceType": "Observation",
        "id": "Observation-686395",
        "meta": {
          "profile": [
            "http://hl7.org/fhir/us/hedis/StructureDefinition/hedis-observation"
          ]
        },
        "status": "final",
        "code": {
          "coding": [
            {
              "system": "http://cqframework.info/codesystem/placeholder",
              "code": "00009",
              "display": "PHQ-9 Modified Score"
            }
          ]
        },
        "subject": {
          "reference": "Patient/Patient-1123",
          "display": "William Yung Chen"
        },
        "context": {
          "reference": "Encounter/Encounter-4165",
          "display": "DRR_Encounter"
        },
        "effectiveDateTime": "2017-08-13T01:00:00-04:00",
        "performer": [
          {
            "reference": "Practitioner/Practitioner-2519",
            "display": "Stanley Jason Garrett MD"
          }
        ],
        "valueQuantity": {
          "value": 0.0,
          "unit": "score"
        }
      },
      "request": {
        "method": "PUT",
        "url": "http://localhost:8080/cqf-ruler/baseDstu3/Observation/Observation-686395"
      }
    },
    {
      "fullUrl": "http://localhost:8080/cqf-ruler/baseDstu3/DiagnosticReport/DiagnosticReport-686396",
      "resource": {
        "resourceType": "DiagnosticReport",
        "id": "DiagnosticReport-686396",
        "meta": {
          "profile": [
            "http://hl7.org/fhir/us/hedis/StructureDefinition/hedis-diagnosticreport"
          ]
        },
        "status": "final",
        "category": {
          "coding": [
            {
              "system": "http://hl7.org/fhir/ValueSet/diagnostic-service-sections",
              "code": "OTH",
              "display": "Other"
            }
          ]
        },
        "code": {
          "coding": [
            {
              "system": "http://snomed.info/sct",
              "code": "71336009",
              "display": "Recurrent major depressive disorder with postpartum onset (disorder)"
            }
          ]
        },
        "subject": {
          "reference": "Patient/Patient-1123",
          "display": "William Yung Chen"
        },
        "context": {
          "reference": "Encounter/Encounter-4165",
          "display": "DRR_Encounter"
        },
        "effectivePeriod": {
          "start": "2017-08-13T01:00:00-04:00",
          "end": "2017-08-13T01:00:00-04:00"
        },
        "issued": "2017-08-13T01:00:00.000-04:00"
      },
      "request": {
        "method": "PUT",
        "url": "http://localhost:8080/cqf-ruler/baseDstu3/DiagnosticReport/DiagnosticReport-686396"
      }
    },
    {
      "fullUrl": "http://localhost:8080/cqf-ruler/baseDstu3/Observation/Observation-686399",
      "resource": {
        "resourceType": "Observation",
        "id": "Observation-686399",
        "status": "final",
        "code": {
          "coding": [
            {
              "system": "http://loinc.org",
              "code": "8302-2",
              "display": "Height"
            }
          ]
        },
        "subject": {
          "reference": "Patient/Patient-1123",
          "display": "William Yung Chen"
        },
        "context": {
          "reference": "Encounter/Encounter-4165",
          "display": "DRR_Encounter"
        },
        "effectiveDateTime": "2017-08-13T01:00:00-04:00",
        "performer": [
          {
            "reference": "Practitioner/Practitioner-2519",
            "display": "Stanley Jason Garrett MD"
          }
        ],
        "valueQuantity": {
          "value": 165.0,
          "unit": "cm"
        }
      },
      "request": {
        "method": "PUT",
        "url": "http://localhost:8080/cqf-ruler/baseDstu3/Observation/Observation-686399"
      }
    },
    {
      "fullUrl": "http://localhost:8080/cqf-ruler/baseDstu3/Observation/Observation-686400",
      "resource": {
        "resourceType": "Observation",
        "id": "Observation-686400",
        "status": "final",
        "code": {
          "coding": [
            {
              "system": "http://loinc.org",
              "code": "29463-7",
              "display": "Weight"
            }
          ]
        },
        "subject": {
          "reference": "Patient/Patient-1123",
          "display": "William Yung Chen"
        },
        "context": {
          "reference": "Encounter/Encounter-4165",
          "display": "DRR_Encounter"
        },
        "effectiveDateTime": "2017-08-13T01:00:00-04:00",
        "performer": [
          {
            "reference": "Practitioner/Practitioner-2519",
            "display": "Stanley Jason Garrett MD"
          }
        ],
        "valueQuantity": {
          "value": 93.54680241299972,
          "unit": "kg"
        }
      },
      "request": {
        "method": "PUT",
        "url": "http://localhost:8080/cqf-ruler/baseDstu3/Observation/Observation-686400"
      }
    },
    {
      "fullUrl": "http://localhost:8080/cqf-ruler/baseDstu3/Observation/Observation-686401",
      "resource": {
        "resourceType": "Observation",
        "id": "Observation-686401",
        "status": "final",
        "code": {
          "coding": [
            {
              "system": "http://loinc.org",
              "code": "39156-5",
              "display": "BMI"
            }
          ]
        },
        "subject": {
          "reference": "Patient/Patient-1123",
          "display": "William Yung Chen"
        },
        "context": {
          "reference": "Encounter/Encounter-4165",
          "display": "DRR_Encounter"
        },
        "effectiveDateTime": "2017-08-13T01:00:00-04:00",
        "performer": [
          {
            "reference": "Practitioner/Practitioner-2519",
            "display": "Stanley Jason Garrett MD"
          }
        ],
        "valueQuantity": {
          "value": 34.3606253123966,
          "unit": "kg/m2"
        }
      },
      "request": {
        "method": "PUT",
        "url": "http://localhost:8080/cqf-ruler/baseDstu3/Observation/Observation-686401"
      }
    },
    {
      "fullUrl": "http://localhost:8080/cqf-ruler/baseDstu3/Observation/Observation-686402",
      "resource": {
        "resourceType": "Observation",
        "id": "Observation-686402",
        "status": "final",
        "code": {
          "coding": [
            {
              "system": "http://loinc.org",
              "code": "8310-5",
              "display": "Temperature"
            }
          ]
        },
        "subject": {
          "reference": "Patient/Patient-1123",
          "display": "William Yung Chen"
        },
        "context": {
          "reference": "Encounter/Encounter-4165",
          "display": "DRR_Encounter"
        },
        "effectiveDateTime": "2017-08-13T01:00:00-04:00",
        "performer": [
          {
            "reference": "Practitioner/Practitioner-2519",
            "display": "Stanley Jason Garrett MD"
          }
        ],
        "valueQuantity": {
          "value": 37.0,
          "unit": "C"
        }
      },
      "request": {
        "method": "PUT",
        "url": "http://localhost:8080/cqf-ruler/baseDstu3/Observation/Observation-686402"
      }
    },
    {
      "fullUrl": "http://localhost:8080/cqf-ruler/baseDstu3/Observation/Observation-686403",
      "resource": {
        "resourceType": "Observation",
        "id": "Observation-686403",
        "status": "final",
        "code": {
          "coding": [
            {
              "system": "http://loinc.org",
              "code": "8459-0",
              "display": "Systolic Blood Pressure"
            }
          ]
        },
        "subject": {
          "reference": "Patient/Patient-1123",
          "display": "William Yung Chen"
        },
        "context": {
          "reference": "Encounter/Encounter-4165",
          "display": "DRR_Encounter"
        },
        "effectiveDateTime": "2017-08-13T01:00:00-04:00",
        "performer": [
          {
            "reference": "Practitioner/Practitioner-2519",
            "display": "Stanley Jason Garrett MD"
          }
        ],
        "valueQuantity": {
          "value": 136.2054217170244,
          "unit": "mmHg"
        }
      },
      "request": {
        "method": "PUT",
        "url": "http://localhost:8080/cqf-ruler/baseDstu3/Observation/Observation-686403"
      }
    },
    {
      "fullUrl": "http://localhost:8080/cqf-ruler/baseDstu3/Observation/Observation-686404",
      "resource": {
        "resourceType": "Observation",
        "id": "Observation-686404",
        "status": "final",
        "code": {
          "coding": [
            {
              "system": "http://loinc.org",
              "code": "8453-3",
              "display": "Diastolic Blood Pressure"
            }
          ]
        },
        "subject": {
          "reference": "Patient/Patient-1123",
          "display": "William Yung Chen"
        },
        "context": {
          "reference": "Encounter/Encounter-4165",
          "display": "DRR_Encounter"
        },
        "effectiveDateTime": "2017-08-13T01:00:00-04:00",
        "performer": [
          {
            "reference": "Practitioner/Practitioner-2519",
            "display": "Stanley Jason Garrett MD"
          }
        ],
        "valueQuantity": {
          "value": 91.35636455249464,
          "unit": "mmHg"
        }
      },
      "request": {
        "method": "PUT",
        "url": "http://localhost:8080/cqf-ruler/baseDstu3/Observation/Observation-686404"
      }
    },
    {
      "fullUrl": "http://localhost:8080/cqf-ruler/baseDstu3/DiagnosticReport/DiagnosticReport-686398",
      "resource": {
        "resourceType": "DiagnosticReport",
        "id": "DiagnosticReport-686398",
        "meta": {
          "profile": [
            "http://hl7.org/fhir/us/hedis/StructureDefinition/hedis-diagnosticreport"
          ]
        },
        "status": "final",
        "category": {
          "coding": [
            {
              "system": "http://hl7.org/fhir/ValueSet/diagnostic-service-sections",
              "code": "LAB",
              "display": "Laboratory"
            }
          ]
        },
        "code": {
          "coding": [
            {
              "system": "http://loinc.org",
              "code": "8716-3",
              "display": "Vital Signs Panel"
            }
          ]
        },
        "subject": {
          "reference": "Patient/Patient-1123",
          "display": "William Yung Chen"
        },
        "context": {
          "reference": "Encounter/Encounter-4165",
          "display": "DRR_Encounter"
        },
        "effectivePeriod": {
          "start": "2017-08-13T01:00:00-04:00",
          "end": "2017-08-13T01:00:00-04:00"
        },
        "issued": "2017-08-13T01:00:00.000-04:00",
        "result": [
          {
            "reference": "Observation/Observation-686399",
            "display": "Height"
          },
          {
            "reference": "Observation/Observation-686400",
            "display": "Weight"
          },
          {
            "reference": "Observation/Observation-686401",
            "display": "BMI"
          },
          {
            "reference": "Observation/Observation-686402",
            "display": "Temperature"
          },
          {
            "reference": "Observation/Observation-686403",
            "display": "Systolic Blood Pressure"
          },
          {
            "reference": "Observation/Observation-686404",
            "display": "Diastolic Blood Pressure"
          }
        ]
      },
      "request": {
        "method": "PUT",
        "url": "http://localhost:8080/cqf-ruler/baseDstu3/DiagnosticReport/DiagnosticReport-686398"
      }
    }
  ]
}