{
  "resourceType": "Bundle",
  "id": "William-Yung-Chen-1123-Encounter-2548",
  "type": "transaction",
  "entry": [
    {
      "fullUrl": "http://localhost:8080/cqf-ruler/baseDstu3Encounter/Encounter-2548",
      "resource": {
        "resourceType": "Encounter",
        "id": "Encounter-2548",
        "status": "finished",
        "class": {
          "system": "http://hl7.org/fhir/encounter-class",
          "code": "outpatient",
          "display": "Inpatient"
        },
        "subject": {
          "reference": "Patient/Patient-1123",
          "display": "William Yung Chen"
        },
        "participant": [
          {
            "period": {
              "start": "2016-08-27T01:00:00-04:00",
              "end": "2016-08-27T01:00:00-04:00"
            },
            "individual": {
              "reference": "Practitioner/Practitioner-2519",
              "display": "Stanley Jason Garrett MD"
            }
          }
        ],
        "period": {
          "start": "2016-08-27T01:00:00-04:00",
          "end": "2016-08-27T01:00:00-04:00"
        },
        "location": [
          {
            "location": {
              "reference": "Location/Location-1104",
              "display": "Bay Area Family Practice"
            }
          }
        ],
        "serviceProvider": {
          "reference": "Organization/Organization-1104",
          "display": "Bay Area Family Practice"
        }
      },
      "request": {
        "method": "PUT",
        "url": "http://localhost:8080/cqf-ruler/baseDstu3Encounter/Encounter-2548"
      }
    },
    {
      "fullUrl": "http://localhost:8080/cqf-ruler/baseDstu3Immunization/Immunization-539880",
      "resource": {
        "resourceType": "Immunization",
        "id": "Immunization-539880",
        "status": "completed",
        "notGiven": false,
        "vaccineCode": {
          "coding": [
            {
              "system": "http://hl7.org/fhir/sid/cvx",
              "code": "140",
              "display": "Influenza, seasonal, injectable, preservative free"
            }
          ]
        },
        "patient": {
          "reference": "Patient/Patient-1123",
          "display": "William Yung Chen"
        },
        "date": "2016-08-27T01:00:00-04:00",
        "primarySource": true,
        "location": {
          "reference": "Location/Location-1104",
          "display": "Bay Area Family Practice"
        },
        "practitioner": [
          {
            "actor": {
              "reference": "Practitioner/Practitioner-2519",
              "display": "Stanley Jason Garrett MD"
            }
          }
        ]
      },
      "request": {
        "method": "PUT",
        "url": "http://localhost:8080/cqf-ruler/baseDstu3Immunization/Immunization-539880"
      }
    },
    {
      "fullUrl": "http://localhost:8080/cqf-ruler/baseDstu3Immunization/Immunization-539881",
      "resource": {
        "resourceType": "Immunization",
        "id": "Immunization-539881",
        "status": "completed",
        "notGiven": false,
        "vaccineCode": {
          "coding": [
            {
              "system": "http://hl7.org/fhir/sid/cvx",
              "code": "113",
              "display": "Td (adult) preservative free"
            }
          ]
        },
        "patient": {
          "reference": "Patient/Patient-1123",
          "display": "William Yung Chen"
        },
        "date": "2016-08-27T01:00:00-04:00",
        "primarySource": true,
        "location": {
          "reference": "Location/Location-1104",
          "display": "Bay Area Family Practice"
        },
        "practitioner": [
          {
            "actor": {
              "reference": "Practitioner/Practitioner-2519",
              "display": "Stanley Jason Garrett MD"
            }
          }
        ]
      },
      "request": {
        "method": "PUT",
        "url": "http://localhost:8080/cqf-ruler/baseDstu3Immunization/Immunization-539881"
      }
    },
    {
      "fullUrl": "http://localhost:8080/cqf-ruler/baseDstu3Observation/Observation-619509",
      "resource": {
        "resourceType": "Observation",
        "id": "Observation-619509",
        "status": "final",
        "code": {
          "coding": [
            {
              "system": "http://loinc.org",
              "code": "8302-2",
              "display": "Height"
            }
          ]
        },
        "subject": {
          "reference": "Patient/Patient-1123",
          "display": "William Yung Chen"
        },
        "context": {
          "reference": "Encounter/Encounter-2548",
          "display": "Wellness Visit"
        },
        "effectiveDateTime": "2016-08-27T01:00:00-04:00",
        "performer": [
          {
            "reference": "Practitioner/Practitioner-2519",
            "display": "Stanley Jason Garrett MD"
          }
        ],
        "valueQuantity": {
          "value": 165.0,
          "unit": "cm"
        }
      },
      "request": {
        "method": "PUT",
        "url": "http://localhost:8080/cqf-ruler/baseDstu3Observation/Observation-619509"
      }
    },
    {
      "fullUrl": "http://localhost:8080/cqf-ruler/baseDstu3Observation/Observation-619510",
      "resource": {
        "resourceType": "Observation",
        "id": "Observation-619510",
        "status": "final",
        "code": {
          "coding": [
            {
              "system": "http://loinc.org",
              "code": "29463-7",
              "display": "Weight"
            }
          ]
        },
        "subject": {
          "reference": "Patient/Patient-1123",
          "display": "William Yung Chen"
        },
        "context": {
          "reference": "Encounter/Encounter-2548",
          "display": "Wellness Visit"
        },
        "effectiveDateTime": "2016-08-27T01:00:00-04:00",
        "performer": [
          {
            "reference": "Practitioner/Practitioner-2519",
            "display": "Stanley Jason Garrett MD"
          }
        ],
        "valueQuantity": {
          "value": 81.84980742318666,
          "unit": "kg"
        }
      },
      "request": {
        "method": "PUT",
        "url": "http://localhost:8080/cqf-ruler/baseDstu3Observation/Observation-619510"
      }
    },
    {
      "fullUrl": "http://localhost:8080/cqf-ruler/baseDstu3Observation/Observation-619511",
      "resource": {
        "resourceType": "Observation",
        "id": "Observation-619511",
        "status": "final",
        "code": {
          "coding": [
            {
              "system": "http://loinc.org",
              "code": "39156-5",
              "display": "BMI"
            }
          ]
        },
        "subject": {
          "reference": "Patient/Patient-1123",
          "display": "William Yung Chen"
        },
        "context": {
          "reference": "Encounter/Encounter-2548",
          "display": "Wellness Visit"
        },
        "effectiveDateTime": "2016-08-27T01:00:00-04:00",
        "performer": [
          {
            "reference": "Practitioner/Practitioner-2519",
            "display": "Stanley Jason Garrett MD"
          }
        ],
        "valueQuantity": {
          "value": 30.064208419903277,
          "unit": "kg/m2"
        }
      },
      "request": {
        "method": "PUT",
        "url": "http://localhost:8080/cqf-ruler/baseDstu3Observation/Observation-619511"
      }
    },
    {
      "fullUrl": "http://localhost:8080/cqf-ruler/baseDstu3Observation/Observation-619512",
      "resource": {
        "resourceType": "Observation",
        "id": "Observation-619512",
        "status": "final",
        "code": {
          "coding": [
            {
              "system": "http://loinc.org",
              "code": "8310-5",
              "display": "Temperature"
            }
          ]
        },
        "subject": {
          "reference": "Patient/Patient-1123",
          "display": "William Yung Chen"
        },
        "context": {
          "reference": "Encounter/Encounter-2548",
          "display": "Wellness Visit"
        },
        "effectiveDateTime": "2016-08-27T01:00:00-04:00",
        "performer": [
          {
            "reference": "Practitioner/Practitioner-2519",
            "display": "Stanley Jason Garrett MD"
          }
        ],
        "valueQuantity": {
          "value": 37.0,
          "unit": "C"
        }
      },
      "request": {
        "method": "PUT",
        "url": "http://localhost:8080/cqf-ruler/baseDstu3Observation/Observation-619512"
      }
    },
    {
      "fullUrl": "http://localhost:8080/cqf-ruler/baseDstu3Observation/Observation-619513",
      "resource": {
        "resourceType": "Observation",
        "id": "Observation-619513",
        "status": "final",
        "code": {
          "coding": [
            {
              "system": "http://loinc.org",
              "code": "8459-0",
              "display": "Systolic Blood Pressure"
            }
          ]
        },
        "subject": {
          "reference": "Patient/Patient-1123",
          "display": "William Yung Chen"
        },
        "context": {
          "reference": "Encounter/Encounter-2548",
          "display": "Wellness Visit"
        },
        "effectiveDateTime": "2016-08-27T01:00:00-04:00",
        "performer": [
          {
            "reference": "Practitioner/Practitioner-2519",
            "display": "Stanley Jason Garrett MD"
          }
        ],
        "valueQuantity": {
          "value": 134.81827274699592,
          "unit": "mmHg"
        }
      },
      "request": {
        "method": "PUT",
        "url": "http://localhost:8080/cqf-ruler/baseDstu3Observation/Observation-619513"
      }
    },
    {
      "fullUrl": "http://localhost:8080/cqf-ruler/baseDstu3Observation/Observation-619514",
      "resource": {
        "resourceType": "Observation",
        "id": "Observation-619514",
        "status": "final",
        "code": {
          "coding": [
            {
              "system": "http://loinc.org",
              "code": "8453-3",
              "display": "Diastolic Blood Pressure"
            }
          ]
        },
        "subject": {
          "reference": "Patient/Patient-1123",
          "display": "William Yung Chen"
        },
        "context": {
          "reference": "Encounter/Encounter-2548",
          "display": "Wellness Visit"
        },
        "effectiveDateTime": "2016-08-27T01:00:00-04:00",
        "performer": [
          {
            "reference": "Practitioner/Practitioner-2519",
            "display": "Stanley Jason Garrett MD"
          }
        ],
        "valueQuantity": {
          "value": 70.04217963803399,
          "unit": "mmHg"
        }
      },
      "request": {
        "method": "PUT",
        "url": "http://localhost:8080/cqf-ruler/baseDstu3Observation/Observation-619514"
      }
    },
    {
      "fullUrl": "http://localhost:8080/cqf-ruler/baseDstu3DiagnosticReport/DiagnosticReport-619508",
      "resource": {
        "resourceType": "DiagnosticReport",
        "id": "DiagnosticReport-619508",
        "status": "final",
        "code": {
          "coding": [
            {
              "system": "http://loinc.org",
              "code": "8716-3",
              "display": "Vital Signs Panel"
            }
          ]
        },
        "subject": {
          "reference": "Patient/Patient-1123",
          "display": "William Yung Chen"
        },
        "context": {
          "reference": "Encounter/Encounter-2548",
          "display": "Wellness Visit"
        },
        "effectivePeriod": {
          "start": "2016-08-27T01:00:00-04:00",
          "end": "2016-08-27T01:00:00-04:00"
        },
        "issued": "2016-08-27T01:00:00.000-04:00",
        "result": [
          {
            "reference": "Observation/Observation-619509",
            "display": "Height"
          },
          {
            "reference": "Observation/Observation-619510",
            "display": "Weight"
          },
          {
            "reference": "Observation/Observation-619511",
            "display": "BMI"
          },
          {
            "reference": "Observation/Observation-619512",
            "display": "Temperature"
          },
          {
            "reference": "Observation/Observation-619513",
            "display": "Systolic Blood Pressure"
          },
          {
            "reference": "Observation/Observation-619514",
            "display": "Diastolic Blood Pressure"
          }
        ]
      },
      "request": {
        "method": "PUT",
        "url": "http://localhost:8080/cqf-ruler/baseDstu3DiagnosticReport/DiagnosticReport-619508"
      }
    }
  ]
}