{
  "resourceType": "Bundle",
  "id": "William-Yung-Chen-1123-Encounter-246",
  "type": "transaction",
  "entry": [
    {
      "fullUrl": "http://localhost:8080/cqf-ruler/baseDstu3Encounter/Encounter-246",
      "resource": {
        "resourceType": "Encounter",
        "id": "Encounter-246",
        "status": "finished",
        "class": {
          "system": "http://hl7.org/fhir/encounter-class",
          "code": "outpatient",
          "display": "Inpatient"
        },
        "subject": {
          "reference": "Patient/Patient-1123",
          "display": "William Yung Chen"
        },
        "participant": [
          {
            "period": {
              "start": "1988-03-04T12:00:00-05:00",
              "end": "1988-03-04T12:00:00-05:00"
            },
            "individual": {
              "reference": "Practitioner/Practitioner-2519",
              "display": "Stanley Jason Garrett MD"
            }
          }
        ],
        "period": {
          "start": "1988-03-04T12:00:00-05:00",
          "end": "1988-03-04T12:00:00-05:00"
        },
        "location": [
          {
            "location": {
              "reference": "Location/Location-1104",
              "display": "Bay Area Family Practice"
            }
          }
        ],
        "serviceProvider": {
          "reference": "Organization/Organization-1104",
          "display": "Bay Area Family Practice"
        }
      },
      "request": {
        "method": "PUT",
        "url": "http://localhost:8080/cqf-ruler/baseDstu3Encounter/Encounter-246"
      }
    },
    {
      "fullUrl": "http://localhost:8080/cqf-ruler/baseDstu3Immunization/Immunization-1599",
      "resource": {
        "resourceType": "Immunization",
        "id": "Immunization-1599",
        "status": "completed",
        "notGiven": false,
        "vaccineCode": {
          "coding": [
            {
              "system": "http://hl7.org/fhir/sid/cvx",
              "code": "140",
              "display": "Influenza, seasonal, injectable, preservative free"
            }
          ]
        },
        "patient": {
          "reference": "Patient/Patient-1123",
          "display": "William Yung Chen"
        },
        "date": "1988-03-04T12:00:00-05:00",
        "primarySource": true,
        "location": {
          "reference": "Location/Location-1104",
          "display": "Bay Area Family Practice"
        },
        "practitioner": [
          {
            "actor": {
              "reference": "Practitioner/Practitioner-2519",
              "display": "Stanley Jason Garrett MD"
            }
          }
        ]
      },
      "request": {
        "method": "PUT",
        "url": "http://localhost:8080/cqf-ruler/baseDstu3Immunization/Immunization-1599"
      }
    },
    {
      "fullUrl": "http://localhost:8080/cqf-ruler/baseDstu3Immunization/Immunization-1600",
      "resource": {
        "resourceType": "Immunization",
        "id": "Immunization-1600",
        "status": "completed",
        "notGiven": false,
        "vaccineCode": {
          "coding": [
            {
              "system": "http://hl7.org/fhir/sid/cvx",
              "code": "83",
              "display": "Hep A, ped/adol, 2 dose"
            }
          ]
        },
        "patient": {
          "reference": "Patient/Patient-1123",
          "display": "William Yung Chen"
        },
        "date": "1988-03-04T12:00:00-05:00",
        "primarySource": true,
        "location": {
          "reference": "Location/Location-1104",
          "display": "Bay Area Family Practice"
        },
        "practitioner": [
          {
            "actor": {
              "reference": "Practitioner/Practitioner-2519",
              "display": "Stanley Jason Garrett MD"
            }
          }
        ]
      },
      "request": {
        "method": "PUT",
        "url": "http://localhost:8080/cqf-ruler/baseDstu3Immunization/Immunization-1600"
      }
    },
    {
      "fullUrl": "http://localhost:8080/cqf-ruler/baseDstu3Observation/Observation-4476",
      "resource": {
        "resourceType": "Observation",
        "id": "Observation-4476",
        "status": "final",
        "code": {
          "coding": [
            {
              "system": "http://loinc.org",
              "code": "8302-2",
              "display": "Height"
            }
          ]
        },
        "subject": {
          "reference": "Patient/Patient-1123",
          "display": "William Yung Chen"
        },
        "context": {
          "reference": "Encounter/Encounter-246",
          "display": "Wellness Visit"
        },
        "effectiveDateTime": "1988-03-04T12:00:00-05:00",
        "performer": [
          {
            "reference": "Practitioner/Practitioner-2519",
            "display": "Stanley Jason Garrett MD"
          }
        ],
        "valueQuantity": {
          "value": 94.1,
          "unit": "cm"
        }
      },
      "request": {
        "method": "PUT",
        "url": "http://localhost:8080/cqf-ruler/baseDstu3Observation/Observation-4476"
      }
    },
    {
      "fullUrl": "http://localhost:8080/cqf-ruler/baseDstu3Observation/Observation-4477",
      "resource": {
        "resourceType": "Observation",
        "id": "Observation-4477",
        "status": "final",
        "code": {
          "coding": [
            {
              "system": "http://loinc.org",
              "code": "29463-7",
              "display": "Weight"
            }
          ]
        },
        "subject": {
          "reference": "Patient/Patient-1123",
          "display": "William Yung Chen"
        },
        "context": {
          "reference": "Encounter/Encounter-246",
          "display": "Wellness Visit"
        },
        "effectiveDateTime": "1988-03-04T12:00:00-05:00",
        "performer": [
          {
            "reference": "Practitioner/Practitioner-2519",
            "display": "Stanley Jason Garrett MD"
          }
        ],
        "valueQuantity": {
          "value": 18.6,
          "unit": "kg"
        }
      },
      "request": {
        "method": "PUT",
        "url": "http://localhost:8080/cqf-ruler/baseDstu3Observation/Observation-4477"
      }
    },
    {
      "fullUrl": "http://localhost:8080/cqf-ruler/baseDstu3Observation/Observation-4478",
      "resource": {
        "resourceType": "Observation",
        "id": "Observation-4478",
        "status": "final",
        "code": {
          "coding": [
            {
              "system": "http://loinc.org",
              "code": "39156-5",
              "display": "BMI"
            }
          ]
        },
        "subject": {
          "reference": "Patient/Patient-1123",
          "display": "William Yung Chen"
        },
        "context": {
          "reference": "Encounter/Encounter-246",
          "display": "Wellness Visit"
        },
        "effectiveDateTime": "1988-03-04T12:00:00-05:00",
        "performer": [
          {
            "reference": "Practitioner/Practitioner-2519",
            "display": "Stanley Jason Garrett MD"
          }
        ],
        "valueQuantity": {
          "value": 21.00553258624409,
          "unit": "kg/m2"
        }
      },
      "request": {
        "method": "PUT",
        "url": "http://localhost:8080/cqf-ruler/baseDstu3Observation/Observation-4478"
      }
    },
    {
      "fullUrl": "http://localhost:8080/cqf-ruler/baseDstu3Observation/Observation-4479",
      "resource": {
        "resourceType": "Observation",
        "id": "Observation-4479",
        "status": "final",
        "code": {
          "coding": [
            {
              "system": "http://loinc.org",
              "code": "8310-5",
              "display": "Temperature"
            }
          ]
        },
        "subject": {
          "reference": "Patient/Patient-1123",
          "display": "William Yung Chen"
        },
        "context": {
          "reference": "Encounter/Encounter-246",
          "display": "Wellness Visit"
        },
        "effectiveDateTime": "1988-03-04T12:00:00-05:00",
        "performer": [
          {
            "reference": "Practitioner/Practitioner-2519",
            "display": "Stanley Jason Garrett MD"
          }
        ],
        "valueQuantity": {
          "value": 37.0,
          "unit": "C"
        }
      },
      "request": {
        "method": "PUT",
        "url": "http://localhost:8080/cqf-ruler/baseDstu3Observation/Observation-4479"
      }
    },
    {
      "fullUrl": "http://localhost:8080/cqf-ruler/baseDstu3Observation/Observation-4480",
      "resource": {
        "resourceType": "Observation",
        "id": "Observation-4480",
        "status": "final",
        "code": {
          "coding": [
            {
              "system": "http://loinc.org",
              "code": "8459-0",
              "display": "Systolic Blood Pressure"
            }
          ]
        },
        "subject": {
          "reference": "Patient/Patient-1123",
          "display": "William Yung Chen"
        },
        "context": {
          "reference": "Encounter/Encounter-246",
          "display": "Wellness Visit"
        },
        "effectiveDateTime": "1988-03-04T12:00:00-05:00",
        "performer": [
          {
            "reference": "Practitioner/Practitioner-2519",
            "display": "Stanley Jason Garrett MD"
          }
        ],
        "valueQuantity": {
          "value": 136.4193599576363,
          "unit": "mmHg"
        }
      },
      "request": {
        "method": "PUT",
        "url": "http://localhost:8080/cqf-ruler/baseDstu3Observation/Observation-4480"
      }
    },
    {
      "fullUrl": "http://localhost:8080/cqf-ruler/baseDstu3Observation/Observation-4481",
      "resource": {
        "resourceType": "Observation",
        "id": "Observation-4481",
        "status": "final",
        "code": {
          "coding": [
            {
              "system": "http://loinc.org",
              "code": "8453-3",
              "display": "Diastolic Blood Pressure"
            }
          ]
        },
        "subject": {
          "reference": "Patient/Patient-1123",
          "display": "William Yung Chen"
        },
        "context": {
          "reference": "Encounter/Encounter-246",
          "display": "Wellness Visit"
        },
        "effectiveDateTime": "1988-03-04T12:00:00-05:00",
        "performer": [
          {
            "reference": "Practitioner/Practitioner-2519",
            "display": "Stanley Jason Garrett MD"
          }
        ],
        "valueQuantity": {
          "value": 71.05600010242509,
          "unit": "mmHg"
        }
      },
      "request": {
        "method": "PUT",
        "url": "http://localhost:8080/cqf-ruler/baseDstu3Observation/Observation-4481"
      }
    },
    {
      "fullUrl": "http://localhost:8080/cqf-ruler/baseDstu3DiagnosticReport/DiagnosticReport-4475",
      "resource": {
        "resourceType": "DiagnosticReport",
        "id": "DiagnosticReport-4475",
        "status": "final",
        "code": {
          "coding": [
            {
              "system": "http://loinc.org",
              "code": "8716-3",
              "display": "Vital Signs Panel"
            }
          ]
        },
        "subject": {
          "reference": "Patient/Patient-1123",
          "display": "William Yung Chen"
        },
        "context": {
          "reference": "Encounter/Encounter-246",
          "display": "Wellness Visit"
        },
        "effectivePeriod": {
          "start": "1988-03-04T12:00:00-05:00",
          "end": "1988-03-04T12:00:00-05:00"
        },
        "issued": "1988-03-04T12:00:00.000-05:00",
        "result": [
          {
            "reference": "Observation/Observation-4476",
            "display": "Height"
          },
          {
            "reference": "Observation/Observation-4477",
            "display": "Weight"
          },
          {
            "reference": "Observation/Observation-4478",
            "display": "BMI"
          },
          {
            "reference": "Observation/Observation-4479",
            "display": "Temperature"
          },
          {
            "reference": "Observation/Observation-4480",
            "display": "Systolic Blood Pressure"
          },
          {
            "reference": "Observation/Observation-4481",
            "display": "Diastolic Blood Pressure"
          }
        ]
      },
      "request": {
        "method": "PUT",
        "url": "http://localhost:8080/cqf-ruler/baseDstu3DiagnosticReport/DiagnosticReport-4475"
      }
    }
  ]
}