{
  "resourceType": "Bundle",
  "id": "Alan-Everett-Shea-III-6529-Encounter-919",
  "type": "transaction",
  "entry": [
    {
      "fullUrl": "http://localhost:8080/cqf-ruler/baseDstu3/Encounter/Encounter-919",
      "resource": {
        "resourceType": "Encounter",
        "id": "Encounter-919",
        "meta": {
          "profile": [
            "http://hl7.org/fhir/us/hedis/StructureDefinition/hedis-encounter"
          ]
        },
        "status": "finished",
        "class": {
          "system": "http://hl7.org/fhir/encounter-class",
          "code": "outpatient",
          "display": "Outpatient"
        },
        "subject": {
          "reference": "Patient/Patient-6529",
          "display": "Alan Everett Shea III"
        },
        "participant": [
          {
            "period": {
              "start": "1997-08-22T00:00:00-04:00",
              "end": "1997-08-22T00:00:00-04:00"
            },
            "individual": {
              "reference": "Practitioner/Practitioner-2526",
              "display": "James Woodward Wilkins MD"
            }
          }
        ],
        "period": {
          "start": "1997-08-22T00:00:00-04:00",
          "end": "1997-08-22T00:00:00-04:00"
        },
        "location": [
          {
            "location": {
              "reference": "Location/Location-1105",
              "display": "Bayside Medical Group"
            }
          }
        ],
        "serviceProvider": {
          "reference": "Organization/Organization-1105",
          "display": "Bayside Medical Group"
        }
      },
      "request": {
        "method": "PUT",
        "url": "http://localhost:8080/cqf-ruler/baseDstu3/Encounter/Encounter-919"
      }
    },
    {
      "fullUrl": "http://localhost:8080/cqf-ruler/baseDstu3/Immunization/Immunization-172118",
      "resource": {
        "resourceType": "Immunization",
        "id": "Immunization-172118",
        "status": "completed",
        "notGiven": false,
        "vaccineCode": {
          "coding": [
            {
              "system": "http://hl7.org/fhir/sid/cvx",
              "code": "140",
              "display": "Influenza, seasonal, injectable, preservative free"
            }
          ]
        },
        "patient": {
          "reference": "Patient/Patient-6529",
          "display": "Alan Everett Shea III"
        },
        "date": "1997-08-22T00:00:00-04:00",
        "primarySource": true,
        "location": {
          "reference": "Location/Location-1105",
          "display": "Bayside Medical Group"
        },
        "practitioner": [
          {
            "actor": {
              "reference": "Practitioner/Practitioner-2526",
              "display": "James Woodward Wilkins MD"
            }
          }
        ]
      },
      "request": {
        "method": "PUT",
        "url": "http://localhost:8080/cqf-ruler/baseDstu3/Immunization/Immunization-172118"
      }
    },
    {
      "fullUrl": "http://localhost:8080/cqf-ruler/baseDstu3/Observation/Observation-193230",
      "resource": {
        "resourceType": "Observation",
        "id": "Observation-193230",
        "meta": {
          "profile": [
            "http://hl7.org/fhir/us/hedis/StructureDefinition/hedis-observation"
          ]
        },
        "status": "final",
        "code": {
          "coding": [
            {
              "system": "http://loinc.org",
              "code": "8480-6",
              "display": "Systolic blood pressure"
            }
          ]
        },
        "subject": {
          "reference": "Patient/Patient-6529",
          "display": "Alan Everett Shea III"
        },
        "context": {
          "reference": "Encounter/Encounter-919",
          "display": "Wellness Visit"
        },
        "effectiveDateTime": "1997-08-22T00:00:00-04:00",
        "performer": [
          {
            "reference": "Practitioner/Practitioner-2526",
            "display": "James Woodward Wilkins MD"
          }
        ],
        "valueQuantity": {
          "value": 111.31768105892915,
          "unit": "mmHg"
        }
      },
      "request": {
        "method": "PUT",
        "url": "http://localhost:8080/cqf-ruler/baseDstu3/Observation/Observation-193230"
      }
    },
    {
      "fullUrl": "http://localhost:8080/cqf-ruler/baseDstu3/Observation/Observation-193231",
      "resource": {
        "resourceType": "Observation",
        "id": "Observation-193231",
        "meta": {
          "profile": [
            "http://hl7.org/fhir/us/hedis/StructureDefinition/hedis-observation"
          ]
        },
        "status": "final",
        "code": {
          "coding": [
            {
              "system": "http://loinc.org",
              "code": "8462-4",
              "display": "Diastolic blood pressure"
            }
          ]
        },
        "subject": {
          "reference": "Patient/Patient-6529",
          "display": "Alan Everett Shea III"
        },
        "context": {
          "reference": "Encounter/Encounter-919",
          "display": "Wellness Visit"
        },
        "effectiveDateTime": "1997-08-22T00:00:00-04:00",
        "performer": [
          {
            "reference": "Practitioner/Practitioner-2526",
            "display": "James Woodward Wilkins MD"
          }
        ],
        "valueQuantity": {
          "value": 73.6423388942674,
          "unit": "mmHg"
        }
      },
      "request": {
        "method": "PUT",
        "url": "http://localhost:8080/cqf-ruler/baseDstu3/Observation/Observation-193231"
      }
    },
    {
      "fullUrl": "http://localhost:8080/cqf-ruler/baseDstu3/Procedure/Procedure-193232",
      "resource": {
        "resourceType": "Procedure",
        "id": "Procedure-193232",
        "meta": {
          "profile": [
            "http://hl7.org/fhir/us/hedis/StructureDefinition/hedis-procedure"
          ]
        },
        "status": "completed",
        "code": {
          "coding": [
            {
              "system": "http://snomed.info/sct",
              "code": "428181000124104",
              "display": "Depression screening positive (situation)"
            }
          ]
        },
        "subject": {
          "reference": "Patient/Patient-6529",
          "display": "Alan Everett Shea III"
        },
        "context": {
          "reference": "Encounter/Encounter-919",
          "display": "Wellness Visit"
        },
        "performedPeriod": {
          "start": "1997-08-22T00:00:00-04:00",
          "end": "1997-08-22T00:00:00-04:00"
        },
        "performer": [
          {
            "actor": {
              "reference": "Practitioner/Practitioner-2526",
              "display": "James Woodward Wilkins MD"
            }
          }
        ],
        "location": {
          "reference": "Location/Location-1105",
          "display": "Bayside Medical Group"
        }
      },
      "request": {
        "method": "PUT",
        "url": "http://localhost:8080/cqf-ruler/baseDstu3/Procedure/Procedure-193232"
      }
    },
    {
      "fullUrl": "http://localhost:8080/cqf-ruler/baseDstu3/Observation/Observation-193233",
      "resource": {
        "resourceType": "Observation",
        "id": "Observation-193233",
        "meta": {
          "profile": [
            "http://hl7.org/fhir/us/hedis/StructureDefinition/hedis-observation"
          ]
        },
        "status": "final",
        "code": {
          "coding": [
            {
              "system": "http://snomed.info/sct",
              "code": "428171000124102",
              "display": "Depression screening negative (finding)"
            }
          ]
        },
        "subject": {
          "reference": "Patient/Patient-6529",
          "display": "Alan Everett Shea III"
        },
        "context": {
          "reference": "Encounter/Encounter-919",
          "display": "Wellness Visit"
        },
        "effectiveDateTime": "1997-08-22T00:00:00-04:00",
        "performer": [
          {
            "reference": "Practitioner/Practitioner-2526",
            "display": "James Woodward Wilkins MD"
          }
        ],
        "valueString": "NEGATIVE"
      },
      "request": {
        "method": "PUT",
        "url": "http://localhost:8080/cqf-ruler/baseDstu3/Observation/Observation-193233"
      }
    },
    {
      "fullUrl": "http://localhost:8080/cqf-ruler/baseDstu3/Observation/Observation-193234",
      "resource": {
        "resourceType": "Observation",
        "id": "Observation-193234",
        "meta": {
          "profile": [
            "http://hl7.org/fhir/us/hedis/StructureDefinition/hedis-observation"
          ]
        },
        "status": "final",
        "code": {
          "coding": [
            {
              "system": "http://loinc.org",
              "code": "8302-2",
              "display": "Body Height"
            }
          ]
        },
        "subject": {
          "reference": "Patient/Patient-6529",
          "display": "Alan Everett Shea III"
        },
        "context": {
          "reference": "Encounter/Encounter-919",
          "display": "Wellness Visit"
        },
        "effectiveDateTime": "1997-08-22T00:00:00-04:00",
        "performer": [
          {
            "reference": "Practitioner/Practitioner-2526",
            "display": "James Woodward Wilkins MD"
          }
        ],
        "valueQuantity": {
          "value": 164.7,
          "unit": "cm"
        }
      },
      "request": {
        "method": "PUT",
        "url": "http://localhost:8080/cqf-ruler/baseDstu3/Observation/Observation-193234"
      }
    },
    {
      "fullUrl": "http://localhost:8080/cqf-ruler/baseDstu3/Observation/Observation-193235",
      "resource": {
        "resourceType": "Observation",
        "id": "Observation-193235",
        "meta": {
          "profile": [
            "http://hl7.org/fhir/us/hedis/StructureDefinition/hedis-observation"
          ]
        },
        "status": "final",
        "code": {
          "coding": [
            {
              "system": "http://loinc.org",
              "code": "29463-7",
              "display": "Body Weight"
            }
          ]
        },
        "subject": {
          "reference": "Patient/Patient-6529",
          "display": "Alan Everett Shea III"
        },
        "context": {
          "reference": "Encounter/Encounter-919",
          "display": "Wellness Visit"
        },
        "effectiveDateTime": "1997-08-22T00:00:00-04:00",
        "performer": [
          {
            "reference": "Practitioner/Practitioner-2526",
            "display": "James Woodward Wilkins MD"
          }
        ],
        "valueQuantity": {
          "value": 67.3,
          "unit": "kg"
        }
      },
      "request": {
        "method": "PUT",
        "url": "http://localhost:8080/cqf-ruler/baseDstu3/Observation/Observation-193235"
      }
    },
    {
      "fullUrl": "http://localhost:8080/cqf-ruler/baseDstu3/Observation/Observation-193236",
      "resource": {
        "resourceType": "Observation",
        "id": "Observation-193236",
        "meta": {
          "profile": [
            "http://hl7.org/fhir/us/hedis/StructureDefinition/hedis-observation"
          ]
        },
        "status": "final",
        "code": {
          "coding": [
            {
              "system": "http://loinc.org",
              "code": "39156-5",
              "display": "Body Mass Index"
            }
          ]
        },
        "subject": {
          "reference": "Patient/Patient-6529",
          "display": "Alan Everett Shea III"
        },
        "context": {
          "reference": "Encounter/Encounter-919",
          "display": "Wellness Visit"
        },
        "effectiveDateTime": "1997-08-22T00:00:00-04:00",
        "performer": [
          {
            "reference": "Practitioner/Practitioner-2526",
            "display": "James Woodward Wilkins MD"
          }
        ],
        "valueQuantity": {
          "value": 24.810062932033336,
          "unit": "kg/m2"
        }
      },
      "request": {
        "method": "PUT",
        "url": "http://localhost:8080/cqf-ruler/baseDstu3/Observation/Observation-193236"
      }
    },
    {
      "fullUrl": "http://localhost:8080/cqf-ruler/baseDstu3/Observation/Observation-193239",
      "resource": {
        "resourceType": "Observation",
        "id": "Observation-193239",
        "meta": {
          "profile": [
            "http://hl7.org/fhir/us/hedis/StructureDefinition/hedis-observation"
          ]
        },
        "status": "final",
        "code": {
          "coding": [
            {
              "system": "http://loinc.org",
              "code": "55284-4",
              "display": "Blood Pressure"
            }
          ]
        },
        "subject": {
          "reference": "Patient/Patient-6529",
          "display": "Alan Everett Shea III"
        },
        "context": {
          "reference": "Encounter/Encounter-919",
          "display": "Wellness Visit"
        },
        "effectiveDateTime": "1997-08-22T00:00:00-04:00",
        "valueQuantity": {
          "value": 73.6423388942674,
          "unit": "mmHg"
        },
        "component": [
          {
            "code": {
              "coding": [
                {
                  "system": "http://loinc.org",
                  "code": "8480-6",
                  "display": "Systolic Blood Pressure"
                }
              ]
            }
          },
          {
            "code": {
              "coding": [
                {
                  "system": "http://loinc.org",
                  "code": "8462-4",
                  "display": "Diastolic Blood Pressure"
                }
              ]
            }
          }
        ]
      },
      "request": {
        "method": "PUT",
        "url": "http://localhost:8080/cqf-ruler/baseDstu3/Observation/Observation-193239"
      }
    },
    {
      "fullUrl": "http://localhost:8080/cqf-ruler/baseDstu3/Observation/Observation-193241",
      "resource": {
        "resourceType": "Observation",
        "id": "Observation-193241",
        "status": "final",
        "code": {
          "coding": [
            {
              "system": "http://loinc.org",
              "code": "8302-2",
              "display": "Height"
            }
          ]
        },
        "subject": {
          "reference": "Patient/Patient-6529",
          "display": "Alan Everett Shea III"
        },
        "context": {
          "reference": "Encounter/Encounter-919",
          "display": "Wellness Visit"
        },
        "effectiveDateTime": "1997-08-22T00:00:00-04:00",
        "performer": [
          {
            "reference": "Practitioner/Practitioner-2526",
            "display": "James Woodward Wilkins MD"
          }
        ],
        "valueQuantity": {
          "value": 164.7,
          "unit": "cm"
        }
      },
      "request": {
        "method": "PUT",
        "url": "http://localhost:8080/cqf-ruler/baseDstu3/Observation/Observation-193241"
      }
    },
    {
      "fullUrl": "http://localhost:8080/cqf-ruler/baseDstu3/Observation/Observation-193242",
      "resource": {
        "resourceType": "Observation",
        "id": "Observation-193242",
        "status": "final",
        "code": {
          "coding": [
            {
              "system": "http://loinc.org",
              "code": "29463-7",
              "display": "Weight"
            }
          ]
        },
        "subject": {
          "reference": "Patient/Patient-6529",
          "display": "Alan Everett Shea III"
        },
        "context": {
          "reference": "Encounter/Encounter-919",
          "display": "Wellness Visit"
        },
        "effectiveDateTime": "1997-08-22T00:00:00-04:00",
        "performer": [
          {
            "reference": "Practitioner/Practitioner-2526",
            "display": "James Woodward Wilkins MD"
          }
        ],
        "valueQuantity": {
          "value": 67.3,
          "unit": "kg"
        }
      },
      "request": {
        "method": "PUT",
        "url": "http://localhost:8080/cqf-ruler/baseDstu3/Observation/Observation-193242"
      }
    },
    {
      "fullUrl": "http://localhost:8080/cqf-ruler/baseDstu3/Observation/Observation-193243",
      "resource": {
        "resourceType": "Observation",
        "id": "Observation-193243",
        "status": "final",
        "code": {
          "coding": [
            {
              "system": "http://loinc.org",
              "code": "39156-5",
              "display": "BMI"
            }
          ]
        },
        "subject": {
          "reference": "Patient/Patient-6529",
          "display": "Alan Everett Shea III"
        },
        "context": {
          "reference": "Encounter/Encounter-919",
          "display": "Wellness Visit"
        },
        "effectiveDateTime": "1997-08-22T00:00:00-04:00",
        "performer": [
          {
            "reference": "Practitioner/Practitioner-2526",
            "display": "James Woodward Wilkins MD"
          }
        ],
        "valueQuantity": {
          "value": 24.810062932033336,
          "unit": "kg/m2"
        }
      },
      "request": {
        "method": "PUT",
        "url": "http://localhost:8080/cqf-ruler/baseDstu3/Observation/Observation-193243"
      }
    },
    {
      "fullUrl": "http://localhost:8080/cqf-ruler/baseDstu3/Observation/Observation-193244",
      "resource": {
        "resourceType": "Observation",
        "id": "Observation-193244",
        "status": "final",
        "code": {
          "coding": [
            {
              "system": "http://loinc.org",
              "code": "8310-5",
              "display": "Temperature"
            }
          ]
        },
        "subject": {
          "reference": "Patient/Patient-6529",
          "display": "Alan Everett Shea III"
        },
        "context": {
          "reference": "Encounter/Encounter-919",
          "display": "Wellness Visit"
        },
        "effectiveDateTime": "1997-08-22T00:00:00-04:00",
        "performer": [
          {
            "reference": "Practitioner/Practitioner-2526",
            "display": "James Woodward Wilkins MD"
          }
        ],
        "valueQuantity": {
          "value": 37.0,
          "unit": "C"
        }
      },
      "request": {
        "method": "PUT",
        "url": "http://localhost:8080/cqf-ruler/baseDstu3/Observation/Observation-193244"
      }
    },
    {
      "fullUrl": "http://localhost:8080/cqf-ruler/baseDstu3/Observation/Observation-193245",
      "resource": {
        "resourceType": "Observation",
        "id": "Observation-193245",
        "status": "final",
        "code": {
          "coding": [
            {
              "system": "http://loinc.org",
              "code": "8459-0",
              "display": "Systolic Blood Pressure"
            }
          ]
        },
        "subject": {
          "reference": "Patient/Patient-6529",
          "display": "Alan Everett Shea III"
        },
        "context": {
          "reference": "Encounter/Encounter-919",
          "display": "Wellness Visit"
        },
        "effectiveDateTime": "1997-08-22T00:00:00-04:00",
        "performer": [
          {
            "reference": "Practitioner/Practitioner-2526",
            "display": "James Woodward Wilkins MD"
          }
        ],
        "valueQuantity": {
          "value": 111.31768105892915,
          "unit": "mmHg"
        }
      },
      "request": {
        "method": "PUT",
        "url": "http://localhost:8080/cqf-ruler/baseDstu3/Observation/Observation-193245"
      }
    },
    {
      "fullUrl": "http://localhost:8080/cqf-ruler/baseDstu3/Observation/Observation-193246",
      "resource": {
        "resourceType": "Observation",
        "id": "Observation-193246",
        "status": "final",
        "code": {
          "coding": [
            {
              "system": "http://loinc.org",
              "code": "8453-3",
              "display": "Diastolic Blood Pressure"
            }
          ]
        },
        "subject": {
          "reference": "Patient/Patient-6529",
          "display": "Alan Everett Shea III"
        },
        "context": {
          "reference": "Encounter/Encounter-919",
          "display": "Wellness Visit"
        },
        "effectiveDateTime": "1997-08-22T00:00:00-04:00",
        "performer": [
          {
            "reference": "Practitioner/Practitioner-2526",
            "display": "James Woodward Wilkins MD"
          }
        ],
        "valueQuantity": {
          "value": 73.6423388942674,
          "unit": "mmHg"
        }
      },
      "request": {
        "method": "PUT",
        "url": "http://localhost:8080/cqf-ruler/baseDstu3/Observation/Observation-193246"
      }
    },
    {
      "fullUrl": "http://localhost:8080/cqf-ruler/baseDstu3/DiagnosticReport/DiagnosticReport-193240",
      "resource": {
        "resourceType": "DiagnosticReport",
        "id": "DiagnosticReport-193240",
        "meta": {
          "profile": [
            "http://hl7.org/fhir/us/hedis/StructureDefinition/hedis-diagnosticreport"
          ]
        },
        "status": "final",
        "category": {
          "coding": [
            {
              "system": "http://hl7.org/fhir/ValueSet/diagnostic-service-sections",
              "code": "LAB",
              "display": "Laboratory"
            }
          ]
        },
        "code": {
          "coding": [
            {
              "system": "http://loinc.org",
              "code": "8716-3",
              "display": "Vital Signs Panel"
            }
          ]
        },
        "subject": {
          "reference": "Patient/Patient-6529",
          "display": "Alan Everett Shea III"
        },
        "context": {
          "reference": "Encounter/Encounter-919",
          "display": "Wellness Visit"
        },
        "effectivePeriod": {
          "start": "1997-08-22T00:00:00-04:00",
          "end": "1997-08-22T00:00:00-04:00"
        },
        "issued": "1997-08-22T00:00:00.000-04:00",
        "result": [
          {
            "reference": "Observation/Observation-193241",
            "display": "Height"
          },
          {
            "reference": "Observation/Observation-193242",
            "display": "Weight"
          },
          {
            "reference": "Observation/Observation-193243",
            "display": "BMI"
          },
          {
            "reference": "Observation/Observation-193244",
            "display": "Temperature"
          },
          {
            "reference": "Observation/Observation-193245",
            "display": "Systolic Blood Pressure"
          },
          {
            "reference": "Observation/Observation-193246",
            "display": "Diastolic Blood Pressure"
          }
        ]
      },
      "request": {
        "method": "PUT",
        "url": "http://localhost:8080/cqf-ruler/baseDstu3/DiagnosticReport/DiagnosticReport-193240"
      }
    }
  ]
}