{
  "resourceType": "Bundle",
  "id": "Alan-Everett-Shea-III-6529-Encounter-313",
  "type": "transaction",
  "entry": [
    {
      "fullUrl": "http://localhost:8080/cqf-ruler/baseDstu3Encounter/Encounter-313",
      "resource": {
        "resourceType": "Encounter",
        "id": "Encounter-313",
        "status": "finished",
        "class": {
          "system": "http://hl7.org/fhir/encounter-class",
          "code": "outpatient",
          "display": "Inpatient"
        },
        "subject": {
          "reference": "Patient/Patient-6529",
          "display": "Alan Everett Shea III"
        },
        "participant": [
          {
            "period": {
              "start": "1989-12-10T00:00:00-05:00",
              "end": "1989-12-10T00:00:00-05:00"
            },
            "individual": {
              "reference": "Practitioner/Practitioner-2526",
              "display": "James Woodward Wilkins MD"
            }
          }
        ],
        "period": {
          "start": "1989-12-10T00:00:00-05:00",
          "end": "1989-12-10T00:00:00-05:00"
        },
        "location": [
          {
            "location": {
              "reference": "Location/Location-1105",
              "display": "Bayside Medical Group"
            }
          }
        ],
        "serviceProvider": {
          "reference": "Organization/Organization-1105",
          "display": "Bayside Medical Group"
        }
      },
      "request": {
        "method": "PUT",
        "url": "http://localhost:8080/cqf-ruler/baseDstu3Encounter/Encounter-313"
      }
    },
    {
      "fullUrl": "http://localhost:8080/cqf-ruler/baseDstu3Immunization/Immunization-17517",
      "resource": {
        "resourceType": "Immunization",
        "id": "Immunization-17517",
        "status": "completed",
        "notGiven": false,
        "vaccineCode": {
          "coding": [
            {
              "system": "http://hl7.org/fhir/sid/cvx",
              "code": "140",
              "display": "Influenza, seasonal, injectable, preservative free"
            }
          ]
        },
        "patient": {
          "reference": "Patient/Patient-6529",
          "display": "Alan Everett Shea III"
        },
        "date": "1989-12-10T00:00:00-05:00",
        "primarySource": true,
        "location": {
          "reference": "Location/Location-1105",
          "display": "Bayside Medical Group"
        },
        "practitioner": [
          {
            "actor": {
              "reference": "Practitioner/Practitioner-2526",
              "display": "James Woodward Wilkins MD"
            }
          }
        ]
      },
      "request": {
        "method": "PUT",
        "url": "http://localhost:8080/cqf-ruler/baseDstu3Immunization/Immunization-17517"
      }
    },
    {
      "fullUrl": "http://localhost:8080/cqf-ruler/baseDstu3Observation/Observation-35789",
      "resource": {
        "resourceType": "Observation",
        "id": "Observation-35789",
        "status": "final",
        "code": {
          "coding": [
            {
              "system": "http://loinc.org",
              "code": "8302-2",
              "display": "Height"
            }
          ]
        },
        "subject": {
          "reference": "Patient/Patient-6529",
          "display": "Alan Everett Shea III"
        },
        "context": {
          "reference": "Encounter/Encounter-313",
          "display": "Wellness Visit"
        },
        "effectiveDateTime": "1989-12-10T00:00:00-05:00",
        "performer": [
          {
            "reference": "Practitioner/Practitioner-2526",
            "display": "James Woodward Wilkins MD"
          }
        ],
        "valueQuantity": {
          "value": 118.3,
          "unit": "cm"
        }
      },
      "request": {
        "method": "PUT",
        "url": "http://localhost:8080/cqf-ruler/baseDstu3Observation/Observation-35789"
      }
    },
    {
      "fullUrl": "http://localhost:8080/cqf-ruler/baseDstu3Observation/Observation-35790",
      "resource": {
        "resourceType": "Observation",
        "id": "Observation-35790",
        "status": "final",
        "code": {
          "coding": [
            {
              "system": "http://loinc.org",
              "code": "29463-7",
              "display": "Weight"
            }
          ]
        },
        "subject": {
          "reference": "Patient/Patient-6529",
          "display": "Alan Everett Shea III"
        },
        "context": {
          "reference": "Encounter/Encounter-313",
          "display": "Wellness Visit"
        },
        "effectiveDateTime": "1989-12-10T00:00:00-05:00",
        "performer": [
          {
            "reference": "Practitioner/Practitioner-2526",
            "display": "James Woodward Wilkins MD"
          }
        ],
        "valueQuantity": {
          "value": 26.7,
          "unit": "kg"
        }
      },
      "request": {
        "method": "PUT",
        "url": "http://localhost:8080/cqf-ruler/baseDstu3Observation/Observation-35790"
      }
    },
    {
      "fullUrl": "http://localhost:8080/cqf-ruler/baseDstu3Observation/Observation-35791",
      "resource": {
        "resourceType": "Observation",
        "id": "Observation-35791",
        "status": "final",
        "code": {
          "coding": [
            {
              "system": "http://loinc.org",
              "code": "39156-5",
              "display": "BMI"
            }
          ]
        },
        "subject": {
          "reference": "Patient/Patient-6529",
          "display": "Alan Everett Shea III"
        },
        "context": {
          "reference": "Encounter/Encounter-313",
          "display": "Wellness Visit"
        },
        "effectiveDateTime": "1989-12-10T00:00:00-05:00",
        "performer": [
          {
            "reference": "Practitioner/Practitioner-2526",
            "display": "James Woodward Wilkins MD"
          }
        ],
        "valueQuantity": {
          "value": 19.07839218457594,
          "unit": "kg/m2"
        }
      },
      "request": {
        "method": "PUT",
        "url": "http://localhost:8080/cqf-ruler/baseDstu3Observation/Observation-35791"
      }
    },
    {
      "fullUrl": "http://localhost:8080/cqf-ruler/baseDstu3Observation/Observation-35792",
      "resource": {
        "resourceType": "Observation",
        "id": "Observation-35792",
        "status": "final",
        "code": {
          "coding": [
            {
              "system": "http://loinc.org",
              "code": "8310-5",
              "display": "Temperature"
            }
          ]
        },
        "subject": {
          "reference": "Patient/Patient-6529",
          "display": "Alan Everett Shea III"
        },
        "context": {
          "reference": "Encounter/Encounter-313",
          "display": "Wellness Visit"
        },
        "effectiveDateTime": "1989-12-10T00:00:00-05:00",
        "performer": [
          {
            "reference": "Practitioner/Practitioner-2526",
            "display": "James Woodward Wilkins MD"
          }
        ],
        "valueQuantity": {
          "value": 37.0,
          "unit": "C"
        }
      },
      "request": {
        "method": "PUT",
        "url": "http://localhost:8080/cqf-ruler/baseDstu3Observation/Observation-35792"
      }
    },
    {
      "fullUrl": "http://localhost:8080/cqf-ruler/baseDstu3Observation/Observation-35793",
      "resource": {
        "resourceType": "Observation",
        "id": "Observation-35793",
        "status": "final",
        "code": {
          "coding": [
            {
              "system": "http://loinc.org",
              "code": "8459-0",
              "display": "Systolic Blood Pressure"
            }
          ]
        },
        "subject": {
          "reference": "Patient/Patient-6529",
          "display": "Alan Everett Shea III"
        },
        "context": {
          "reference": "Encounter/Encounter-313",
          "display": "Wellness Visit"
        },
        "effectiveDateTime": "1989-12-10T00:00:00-05:00",
        "performer": [
          {
            "reference": "Practitioner/Practitioner-2526",
            "display": "James Woodward Wilkins MD"
          }
        ],
        "valueQuantity": {
          "value": 131.04665411555936,
          "unit": "mmHg"
        }
      },
      "request": {
        "method": "PUT",
        "url": "http://localhost:8080/cqf-ruler/baseDstu3Observation/Observation-35793"
      }
    },
    {
      "fullUrl": "http://localhost:8080/cqf-ruler/baseDstu3Observation/Observation-35794",
      "resource": {
        "resourceType": "Observation",
        "id": "Observation-35794",
        "status": "final",
        "code": {
          "coding": [
            {
              "system": "http://loinc.org",
              "code": "8453-3",
              "display": "Diastolic Blood Pressure"
            }
          ]
        },
        "subject": {
          "reference": "Patient/Patient-6529",
          "display": "Alan Everett Shea III"
        },
        "context": {
          "reference": "Encounter/Encounter-313",
          "display": "Wellness Visit"
        },
        "effectiveDateTime": "1989-12-10T00:00:00-05:00",
        "performer": [
          {
            "reference": "Practitioner/Practitioner-2526",
            "display": "James Woodward Wilkins MD"
          }
        ],
        "valueQuantity": {
          "value": 84.88558841739629,
          "unit": "mmHg"
        }
      },
      "request": {
        "method": "PUT",
        "url": "http://localhost:8080/cqf-ruler/baseDstu3Observation/Observation-35794"
      }
    },
    {
      "fullUrl": "http://localhost:8080/cqf-ruler/baseDstu3DiagnosticReport/DiagnosticReport-35788",
      "resource": {
        "resourceType": "DiagnosticReport",
        "id": "DiagnosticReport-35788",
        "status": "final",
        "code": {
          "coding": [
            {
              "system": "http://loinc.org",
              "code": "8716-3",
              "display": "Vital Signs Panel"
            }
          ]
        },
        "subject": {
          "reference": "Patient/Patient-6529",
          "display": "Alan Everett Shea III"
        },
        "context": {
          "reference": "Encounter/Encounter-313",
          "display": "Wellness Visit"
        },
        "effectivePeriod": {
          "start": "1989-12-10T00:00:00-05:00",
          "end": "1989-12-10T00:00:00-05:00"
        },
        "issued": "1989-12-10T00:00:00.000-05:00",
        "result": [
          {
            "reference": "Observation/Observation-35789",
            "display": "Height"
          },
          {
            "reference": "Observation/Observation-35790",
            "display": "Weight"
          },
          {
            "reference": "Observation/Observation-35791",
            "display": "BMI"
          },
          {
            "reference": "Observation/Observation-35792",
            "display": "Temperature"
          },
          {
            "reference": "Observation/Observation-35793",
            "display": "Systolic Blood Pressure"
          },
          {
            "reference": "Observation/Observation-35794",
            "display": "Diastolic Blood Pressure"
          }
        ]
      },
      "request": {
        "method": "PUT",
        "url": "http://localhost:8080/cqf-ruler/baseDstu3DiagnosticReport/DiagnosticReport-35788"
      }
    }
  ]
}