{
  "resourceType": "Bundle",
  "id": "Alan-Everett-Shea-III-6529-Encounter-3952",
  "type": "transaction",
  "entry": [
    {
      "fullUrl": "http://localhost:8080/cqf-ruler/baseDstu3/Encounter/Encounter-3952",
      "resource": {
        "resourceType": "Encounter",
        "id": "Encounter-3952",
        "meta": {
          "profile": [
            "http://hl7.org/fhir/us/hedis/StructureDefinition/hedis-encounter"
          ]
        },
        "status": "finished",
        "class": {
          "system": "http://hl7.org/fhir/encounter-class",
          "code": "outpatient",
          "display": "Outpatient"
        },
        "type": [
          {
            "coding": [
              {
                "system": "http://snomed.info/sct",
                "code": "185345009",
                "display": "Encounter for symptom"
              }
            ]
          }
        ],
        "subject": {
          "reference": "Patient/Patient-6529",
          "display": "Alan Everett Shea III"
        },
        "participant": [
          {
            "period": {
              "start": "2017-06-23T01:00:00-04:00",
              "end": "2017-06-23T01:00:00-04:00"
            },
            "individual": {
              "reference": "Practitioner/Practitioner-2526",
              "display": "James Woodward Wilkins MD"
            }
          }
        ],
        "period": {
          "start": "2017-06-23T01:00:00-04:00",
          "end": "2017-06-23T01:00:00-04:00"
        },
        "location": [
          {
            "location": {
              "reference": "Location/Location-1105",
              "display": "Bayside Medical Group"
            }
          }
        ],
        "serviceProvider": {
          "reference": "Organization/Organization-1105",
          "display": "Bayside Medical Group"
        }
      },
      "request": {
        "method": "PUT",
        "url": "http://localhost:8080/cqf-ruler/baseDstu3/Encounter/Encounter-3952"
      }
    },
    {
      "fullUrl": "http://localhost:8080/cqf-ruler/baseDstu3/Observation/Observation-682855",
      "resource": {
        "resourceType": "Observation",
        "id": "Observation-682855",
        "status": "final",
        "code": {
          "coding": [
            {
              "system": "http://loinc.org",
              "code": "8302-2",
              "display": "Height"
            }
          ]
        },
        "subject": {
          "reference": "Patient/Patient-6529",
          "display": "Alan Everett Shea III"
        },
        "context": {
          "reference": "Encounter/Encounter-3952",
          "display": "Wellness_Encounter"
        },
        "effectiveDateTime": "2017-06-23T01:00:00-04:00",
        "performer": [
          {
            "reference": "Practitioner/Practitioner-2526",
            "display": "James Woodward Wilkins MD"
          }
        ],
        "valueQuantity": {
          "value": 176.8,
          "unit": "cm"
        }
      },
      "request": {
        "method": "PUT",
        "url": "http://localhost:8080/cqf-ruler/baseDstu3/Observation/Observation-682855"
      }
    },
    {
      "fullUrl": "http://localhost:8080/cqf-ruler/baseDstu3/Observation/Observation-682856",
      "resource": {
        "resourceType": "Observation",
        "id": "Observation-682856",
        "status": "final",
        "code": {
          "coding": [
            {
              "system": "http://loinc.org",
              "code": "29463-7",
              "display": "Weight"
            }
          ]
        },
        "subject": {
          "reference": "Patient/Patient-6529",
          "display": "Alan Everett Shea III"
        },
        "context": {
          "reference": "Encounter/Encounter-3952",
          "display": "Wellness_Encounter"
        },
        "effectiveDateTime": "2017-06-23T01:00:00-04:00",
        "performer": [
          {
            "reference": "Practitioner/Practitioner-2526",
            "display": "James Woodward Wilkins MD"
          }
        ],
        "valueQuantity": {
          "value": 85.88064817003003,
          "unit": "kg"
        }
      },
      "request": {
        "method": "PUT",
        "url": "http://localhost:8080/cqf-ruler/baseDstu3/Observation/Observation-682856"
      }
    },
    {
      "fullUrl": "http://localhost:8080/cqf-ruler/baseDstu3/Observation/Observation-682857",
      "resource": {
        "resourceType": "Observation",
        "id": "Observation-682857",
        "status": "final",
        "code": {
          "coding": [
            {
              "system": "http://loinc.org",
              "code": "39156-5",
              "display": "BMI"
            }
          ]
        },
        "subject": {
          "reference": "Patient/Patient-6529",
          "display": "Alan Everett Shea III"
        },
        "context": {
          "reference": "Encounter/Encounter-3952",
          "display": "Wellness_Encounter"
        },
        "effectiveDateTime": "2017-06-23T01:00:00-04:00",
        "performer": [
          {
            "reference": "Practitioner/Practitioner-2526",
            "display": "James Woodward Wilkins MD"
          }
        ],
        "valueQuantity": {
          "value": 27.474562921658425,
          "unit": "kg/m2"
        }
      },
      "request": {
        "method": "PUT",
        "url": "http://localhost:8080/cqf-ruler/baseDstu3/Observation/Observation-682857"
      }
    },
    {
      "fullUrl": "http://localhost:8080/cqf-ruler/baseDstu3/Observation/Observation-682858",
      "resource": {
        "resourceType": "Observation",
        "id": "Observation-682858",
        "status": "final",
        "code": {
          "coding": [
            {
              "system": "http://loinc.org",
              "code": "8310-5",
              "display": "Temperature"
            }
          ]
        },
        "subject": {
          "reference": "Patient/Patient-6529",
          "display": "Alan Everett Shea III"
        },
        "context": {
          "reference": "Encounter/Encounter-3952",
          "display": "Wellness_Encounter"
        },
        "effectiveDateTime": "2017-06-23T01:00:00-04:00",
        "performer": [
          {
            "reference": "Practitioner/Practitioner-2526",
            "display": "James Woodward Wilkins MD"
          }
        ],
        "valueQuantity": {
          "value": 37.0,
          "unit": "C"
        }
      },
      "request": {
        "method": "PUT",
        "url": "http://localhost:8080/cqf-ruler/baseDstu3/Observation/Observation-682858"
      }
    },
    {
      "fullUrl": "http://localhost:8080/cqf-ruler/baseDstu3/Observation/Observation-682859",
      "resource": {
        "resourceType": "Observation",
        "id": "Observation-682859",
        "status": "final",
        "code": {
          "coding": [
            {
              "system": "http://loinc.org",
              "code": "8459-0",
              "display": "Systolic Blood Pressure"
            }
          ]
        },
        "subject": {
          "reference": "Patient/Patient-6529",
          "display": "Alan Everett Shea III"
        },
        "context": {
          "reference": "Encounter/Encounter-3952",
          "display": "Wellness_Encounter"
        },
        "effectiveDateTime": "2017-06-23T01:00:00-04:00",
        "performer": [
          {
            "reference": "Practitioner/Practitioner-2526",
            "display": "James Woodward Wilkins MD"
          }
        ],
        "valueQuantity": {
          "value": 147.72962683290135,
          "unit": "mmHg"
        }
      },
      "request": {
        "method": "PUT",
        "url": "http://localhost:8080/cqf-ruler/baseDstu3/Observation/Observation-682859"
      }
    },
    {
      "fullUrl": "http://localhost:8080/cqf-ruler/baseDstu3/Observation/Observation-682860",
      "resource": {
        "resourceType": "Observation",
        "id": "Observation-682860",
        "status": "final",
        "code": {
          "coding": [
            {
              "system": "http://loinc.org",
              "code": "8453-3",
              "display": "Diastolic Blood Pressure"
            }
          ]
        },
        "subject": {
          "reference": "Patient/Patient-6529",
          "display": "Alan Everett Shea III"
        },
        "context": {
          "reference": "Encounter/Encounter-3952",
          "display": "Wellness_Encounter"
        },
        "effectiveDateTime": "2017-06-23T01:00:00-04:00",
        "performer": [
          {
            "reference": "Practitioner/Practitioner-2526",
            "display": "James Woodward Wilkins MD"
          }
        ],
        "valueQuantity": {
          "value": 76.48510256552953,
          "unit": "mmHg"
        }
      },
      "request": {
        "method": "PUT",
        "url": "http://localhost:8080/cqf-ruler/baseDstu3/Observation/Observation-682860"
      }
    },
    {
      "fullUrl": "http://localhost:8080/cqf-ruler/baseDstu3/DiagnosticReport/DiagnosticReport-682854",
      "resource": {
        "resourceType": "DiagnosticReport",
        "id": "DiagnosticReport-682854",
        "meta": {
          "profile": [
            "http://hl7.org/fhir/us/hedis/StructureDefinition/hedis-diagnosticreport"
          ]
        },
        "status": "final",
        "category": {
          "coding": [
            {
              "system": "http://hl7.org/fhir/ValueSet/diagnostic-service-sections",
              "code": "LAB",
              "display": "Laboratory"
            }
          ]
        },
        "code": {
          "coding": [
            {
              "system": "http://loinc.org",
              "code": "8716-3",
              "display": "Vital Signs Panel"
            }
          ]
        },
        "subject": {
          "reference": "Patient/Patient-6529",
          "display": "Alan Everett Shea III"
        },
        "context": {
          "reference": "Encounter/Encounter-3952",
          "display": "Wellness_Encounter"
        },
        "effectivePeriod": {
          "start": "2017-06-23T01:00:00-04:00",
          "end": "2017-06-23T01:00:00-04:00"
        },
        "issued": "2017-06-23T01:00:00.000-04:00",
        "result": [
          {
            "reference": "Observation/Observation-682855",
            "display": "Height"
          },
          {
            "reference": "Observation/Observation-682856",
            "display": "Weight"
          },
          {
            "reference": "Observation/Observation-682857",
            "display": "BMI"
          },
          {
            "reference": "Observation/Observation-682858",
            "display": "Temperature"
          },
          {
            "reference": "Observation/Observation-682859",
            "display": "Systolic Blood Pressure"
          },
          {
            "reference": "Observation/Observation-682860",
            "display": "Diastolic Blood Pressure"
          }
        ]
      },
      "request": {
        "method": "PUT",
        "url": "http://localhost:8080/cqf-ruler/baseDstu3/DiagnosticReport/DiagnosticReport-682854"
      }
    }
  ]
}