{
  "resourceType": "Bundle",
  "id": "Yolanda-Dawn-Miranda-6517-Encounter-4421",
  "type": "transaction",
  "entry": [
    {
      "fullUrl": "http://localhost:8080/cqf-ruler/baseDstu3/Encounter/Encounter-4421",
      "resource": {
        "resourceType": "Encounter",
        "id": "Encounter-4421",
        "meta": {
          "profile": [
            "http://hl7.org/fhir/us/hedis/StructureDefinition/hedis-encounter"
          ]
        },
        "status": "finished",
        "class": {
          "system": "http://hl7.org/fhir/encounter-class",
          "code": "outpatient",
          "display": "Outpatient"
        },
        "type": [
          {
            "coding": [
              {
                "system": "http://snomed.info/sct",
                "code": "185345009",
                "display": "Encounter for symptom"
              }
            ]
          }
        ],
        "subject": {
          "reference": "Patient/Patient-6517",
          "display": "Yolanda Dawn Miranda"
        },
        "participant": [
          {
            "period": {
              "start": "2017-10-13T01:00:00-04:00",
              "end": "2017-10-13T01:00:00-04:00"
            },
            "individual": {
              "reference": "Practitioner/Practitioner-2534",
              "display": "Pearl Rita Dawson MD"
            }
          }
        ],
        "period": {
          "start": "2017-10-13T01:00:00-04:00",
          "end": "2017-10-13T01:00:00-04:00"
        },
        "location": [
          {
            "location": {
              "reference": "Location/Location-1101",
              "display": "McKinley Health Center"
            }
          }
        ],
        "serviceProvider": {
          "reference": "Organization/Organization-1101",
          "display": "McKinley Health Center"
        }
      },
      "request": {
        "method": "PUT",
        "url": "http://localhost:8080/cqf-ruler/baseDstu3/Encounter/Encounter-4421"
      }
    },
    {
      "fullUrl": "http://localhost:8080/cqf-ruler/baseDstu3/Observation/Observation-694298",
      "resource": {
        "resourceType": "Observation",
        "id": "Observation-694298",
        "meta": {
          "profile": [
            "http://hl7.org/fhir/us/hedis/StructureDefinition/hedis-observation"
          ]
        },
        "status": "final",
        "code": {
          "coding": [
            {
              "system": "http://snomed.info/sct",
              "code": "428171000124102",
              "display": "Depression screening negative (finding)"
            }
          ]
        },
        "subject": {
          "reference": "Patient/Patient-6517",
          "display": "Yolanda Dawn Miranda"
        },
        "context": {
          "reference": "Encounter/Encounter-4421",
          "display": "Wellness_Encounter"
        },
        "effectiveDateTime": "2017-10-13T01:00:00-04:00",
        "performer": [
          {
            "reference": "Practitioner/Practitioner-2534",
            "display": "Pearl Rita Dawson MD"
          }
        ],
        "valueString": "NEGATIVE"
      },
      "request": {
        "method": "PUT",
        "url": "http://localhost:8080/cqf-ruler/baseDstu3/Observation/Observation-694298"
      }
    },
    {
      "fullUrl": "http://localhost:8080/cqf-ruler/baseDstu3/Observation/Observation-697432",
      "resource": {
        "resourceType": "Observation",
        "id": "Observation-697432",
        "status": "final",
        "code": {
          "coding": [
            {
              "system": "http://loinc.org",
              "code": "8302-2",
              "display": "Height"
            }
          ]
        },
        "subject": {
          "reference": "Patient/Patient-6517",
          "display": "Yolanda Dawn Miranda"
        },
        "context": {
          "reference": "Encounter/Encounter-4421",
          "display": "Wellness_Encounter"
        },
        "effectiveDateTime": "2017-10-13T01:00:00-04:00",
        "performer": [
          {
            "reference": "Practitioner/Practitioner-2534",
            "display": "Pearl Rita Dawson MD"
          }
        ],
        "valueQuantity": {
          "value": 171.6,
          "unit": "cm"
        }
      },
      "request": {
        "method": "PUT",
        "url": "http://localhost:8080/cqf-ruler/baseDstu3/Observation/Observation-697432"
      }
    },
    {
      "fullUrl": "http://localhost:8080/cqf-ruler/baseDstu3/Observation/Observation-697433",
      "resource": {
        "resourceType": "Observation",
        "id": "Observation-697433",
        "status": "final",
        "code": {
          "coding": [
            {
              "system": "http://loinc.org",
              "code": "29463-7",
              "display": "Weight"
            }
          ]
        },
        "subject": {
          "reference": "Patient/Patient-6517",
          "display": "Yolanda Dawn Miranda"
        },
        "context": {
          "reference": "Encounter/Encounter-4421",
          "display": "Wellness_Encounter"
        },
        "effectiveDateTime": "2017-10-13T01:00:00-04:00",
        "performer": [
          {
            "reference": "Practitioner/Practitioner-2534",
            "display": "Pearl Rita Dawson MD"
          }
        ],
        "valueQuantity": {
          "value": 71.55539424161226,
          "unit": "kg"
        }
      },
      "request": {
        "method": "PUT",
        "url": "http://localhost:8080/cqf-ruler/baseDstu3/Observation/Observation-697433"
      }
    },
    {
      "fullUrl": "http://localhost:8080/cqf-ruler/baseDstu3/Observation/Observation-697434",
      "resource": {
        "resourceType": "Observation",
        "id": "Observation-697434",
        "status": "final",
        "code": {
          "coding": [
            {
              "system": "http://loinc.org",
              "code": "39156-5",
              "display": "BMI"
            }
          ]
        },
        "subject": {
          "reference": "Patient/Patient-6517",
          "display": "Yolanda Dawn Miranda"
        },
        "context": {
          "reference": "Encounter/Encounter-4421",
          "display": "Wellness_Encounter"
        },
        "effectiveDateTime": "2017-10-13T01:00:00-04:00",
        "performer": [
          {
            "reference": "Practitioner/Practitioner-2534",
            "display": "Pearl Rita Dawson MD"
          }
        ],
        "valueQuantity": {
          "value": 24.3000860683259,
          "unit": "kg/m2"
        }
      },
      "request": {
        "method": "PUT",
        "url": "http://localhost:8080/cqf-ruler/baseDstu3/Observation/Observation-697434"
      }
    },
    {
      "fullUrl": "http://localhost:8080/cqf-ruler/baseDstu3/Observation/Observation-697435",
      "resource": {
        "resourceType": "Observation",
        "id": "Observation-697435",
        "status": "final",
        "code": {
          "coding": [
            {
              "system": "http://loinc.org",
              "code": "8310-5",
              "display": "Temperature"
            }
          ]
        },
        "subject": {
          "reference": "Patient/Patient-6517",
          "display": "Yolanda Dawn Miranda"
        },
        "context": {
          "reference": "Encounter/Encounter-4421",
          "display": "Wellness_Encounter"
        },
        "effectiveDateTime": "2017-10-13T01:00:00-04:00",
        "performer": [
          {
            "reference": "Practitioner/Practitioner-2534",
            "display": "Pearl Rita Dawson MD"
          }
        ],
        "valueQuantity": {
          "value": 37.0,
          "unit": "C"
        }
      },
      "request": {
        "method": "PUT",
        "url": "http://localhost:8080/cqf-ruler/baseDstu3/Observation/Observation-697435"
      }
    },
    {
      "fullUrl": "http://localhost:8080/cqf-ruler/baseDstu3/Observation/Observation-697436",
      "resource": {
        "resourceType": "Observation",
        "id": "Observation-697436",
        "status": "final",
        "code": {
          "coding": [
            {
              "system": "http://loinc.org",
              "code": "8459-0",
              "display": "Systolic Blood Pressure"
            }
          ]
        },
        "subject": {
          "reference": "Patient/Patient-6517",
          "display": "Yolanda Dawn Miranda"
        },
        "context": {
          "reference": "Encounter/Encounter-4421",
          "display": "Wellness_Encounter"
        },
        "effectiveDateTime": "2017-10-13T01:00:00-04:00",
        "performer": [
          {
            "reference": "Practitioner/Practitioner-2534",
            "display": "Pearl Rita Dawson MD"
          }
        ],
        "valueQuantity": {
          "value": 162.63928540111277,
          "unit": "mmHg"
        }
      },
      "request": {
        "method": "PUT",
        "url": "http://localhost:8080/cqf-ruler/baseDstu3/Observation/Observation-697436"
      }
    },
    {
      "fullUrl": "http://localhost:8080/cqf-ruler/baseDstu3/Observation/Observation-697437",
      "resource": {
        "resourceType": "Observation",
        "id": "Observation-697437",
        "status": "final",
        "code": {
          "coding": [
            {
              "system": "http://loinc.org",
              "code": "8453-3",
              "display": "Diastolic Blood Pressure"
            }
          ]
        },
        "subject": {
          "reference": "Patient/Patient-6517",
          "display": "Yolanda Dawn Miranda"
        },
        "context": {
          "reference": "Encounter/Encounter-4421",
          "display": "Wellness_Encounter"
        },
        "effectiveDateTime": "2017-10-13T01:00:00-04:00",
        "performer": [
          {
            "reference": "Practitioner/Practitioner-2534",
            "display": "Pearl Rita Dawson MD"
          }
        ],
        "valueQuantity": {
          "value": 97.9024409594872,
          "unit": "mmHg"
        }
      },
      "request": {
        "method": "PUT",
        "url": "http://localhost:8080/cqf-ruler/baseDstu3/Observation/Observation-697437"
      }
    },
    {
      "fullUrl": "http://localhost:8080/cqf-ruler/baseDstu3/DiagnosticReport/DiagnosticReport-697431",
      "resource": {
        "resourceType": "DiagnosticReport",
        "id": "DiagnosticReport-697431",
        "meta": {
          "profile": [
            "http://hl7.org/fhir/us/hedis/StructureDefinition/hedis-diagnosticreport"
          ]
        },
        "status": "final",
        "category": {
          "coding": [
            {
              "system": "http://hl7.org/fhir/ValueSet/diagnostic-service-sections",
              "code": "LAB",
              "display": "Laboratory"
            }
          ]
        },
        "code": {
          "coding": [
            {
              "system": "http://loinc.org",
              "code": "8716-3",
              "display": "Vital Signs Panel"
            }
          ]
        },
        "subject": {
          "reference": "Patient/Patient-6517",
          "display": "Yolanda Dawn Miranda"
        },
        "context": {
          "reference": "Encounter/Encounter-4421",
          "display": "Wellness_Encounter"
        },
        "effectivePeriod": {
          "start": "2017-10-13T01:00:00-04:00",
          "end": "2017-10-13T01:00:00-04:00"
        },
        "issued": "2017-10-13T01:00:00.000-04:00",
        "result": [
          {
            "reference": "Observation/Observation-697432",
            "display": "Height"
          },
          {
            "reference": "Observation/Observation-697433",
            "display": "Weight"
          },
          {
            "reference": "Observation/Observation-697434",
            "display": "BMI"
          },
          {
            "reference": "Observation/Observation-697435",
            "display": "Temperature"
          },
          {
            "reference": "Observation/Observation-697436",
            "display": "Systolic Blood Pressure"
          },
          {
            "reference": "Observation/Observation-697437",
            "display": "Diastolic Blood Pressure"
          }
        ]
      },
      "request": {
        "method": "PUT",
        "url": "http://localhost:8080/cqf-ruler/baseDstu3/DiagnosticReport/DiagnosticReport-697431"
      }
    }
  ]
}