{
  "resourceType": "Bundle",
  "id": "Melvin-Dale-Matthews-6556-Encounter-1280",
  "type": "transaction",
  "entry": [
    {
      "fullUrl": "http://localhost:8080/cqf-ruler/baseDstu3Encounter/Encounter-1280",
      "resource": {
        "resourceType": "Encounter",
        "id": "Encounter-1280",
        "status": "finished",
        "class": {
          "system": "http://hl7.org/fhir/encounter-class",
          "code": "outpatient",
          "display": "Inpatient"
        },
        "subject": {
          "reference": "Patient/Patient-6556",
          "display": "Melvin Dale Matthews"
        },
        "participant": [
          {
            "period": {
              "start": "2004-01-19T00:00:00-05:00",
              "end": "2004-01-19T00:00:00-05:00"
            },
            "individual": {
              "reference": "Practitioner/Practitioner-2533",
              "display": "Lena Dickerson Ballard MD"
            }
          }
        ],
        "period": {
          "start": "2004-01-19T00:00:00-05:00",
          "end": "2004-01-19T00:00:00-05:00"
        },
        "location": [
          {
            "location": {
              "reference": "Location/Location-1106",
              "display": "Cranston Family Medical"
            }
          }
        ],
        "serviceProvider": {
          "reference": "Organization/Organization-1106",
          "display": "Cranston Family Medical"
        }
      },
      "request": {
        "method": "PUT",
        "url": "http://localhost:8080/cqf-ruler/baseDstu3Encounter/Encounter-1280"
      }
    },
    {
      "fullUrl": "http://localhost:8080/cqf-ruler/baseDstu3Immunization/Immunization-254229",
      "resource": {
        "resourceType": "Immunization",
        "id": "Immunization-254229",
        "status": "completed",
        "notGiven": false,
        "vaccineCode": {
          "coding": [
            {
              "system": "http://hl7.org/fhir/sid/cvx",
              "code": "140",
              "display": "Influenza, seasonal, injectable, preservative free"
            }
          ]
        },
        "patient": {
          "reference": "Patient/Patient-6556",
          "display": "Melvin Dale Matthews"
        },
        "date": "2004-01-19T00:00:00-05:00",
        "primarySource": true,
        "location": {
          "reference": "Location/Location-1106",
          "display": "Cranston Family Medical"
        },
        "practitioner": [
          {
            "actor": {
              "reference": "Practitioner/Practitioner-2533",
              "display": "Lena Dickerson Ballard MD"
            }
          }
        ]
      },
      "request": {
        "method": "PUT",
        "url": "http://localhost:8080/cqf-ruler/baseDstu3Immunization/Immunization-254229"
      }
    },
    {
      "fullUrl": "http://localhost:8080/cqf-ruler/baseDstu3Observation/Observation-318276",
      "resource": {
        "resourceType": "Observation",
        "id": "Observation-318276",
        "status": "final",
        "code": {
          "coding": [
            {
              "system": "http://loinc.org",
              "code": "8302-2",
              "display": "Height"
            }
          ]
        },
        "subject": {
          "reference": "Patient/Patient-6556",
          "display": "Melvin Dale Matthews"
        },
        "context": {
          "reference": "Encounter/Encounter-1280",
          "display": "Wellness Visit"
        },
        "effectiveDateTime": "2004-01-19T00:00:00-05:00",
        "performer": [
          {
            "reference": "Practitioner/Practitioner-2533",
            "display": "Lena Dickerson Ballard MD"
          }
        ],
        "valueQuantity": {
          "value": 181.7,
          "unit": "cm"
        }
      },
      "request": {
        "method": "PUT",
        "url": "http://localhost:8080/cqf-ruler/baseDstu3Observation/Observation-318276"
      }
    },
    {
      "fullUrl": "http://localhost:8080/cqf-ruler/baseDstu3Observation/Observation-318277",
      "resource": {
        "resourceType": "Observation",
        "id": "Observation-318277",
        "status": "final",
        "code": {
          "coding": [
            {
              "system": "http://loinc.org",
              "code": "29463-7",
              "display": "Weight"
            }
          ]
        },
        "subject": {
          "reference": "Patient/Patient-6556",
          "display": "Melvin Dale Matthews"
        },
        "context": {
          "reference": "Encounter/Encounter-1280",
          "display": "Wellness Visit"
        },
        "effectiveDateTime": "2004-01-19T00:00:00-05:00",
        "performer": [
          {
            "reference": "Practitioner/Practitioner-2533",
            "display": "Lena Dickerson Ballard MD"
          }
        ],
        "valueQuantity": {
          "value": 75.35034566775889,
          "unit": "kg"
        }
      },
      "request": {
        "method": "PUT",
        "url": "http://localhost:8080/cqf-ruler/baseDstu3Observation/Observation-318277"
      }
    },
    {
      "fullUrl": "http://localhost:8080/cqf-ruler/baseDstu3Observation/Observation-318278",
      "resource": {
        "resourceType": "Observation",
        "id": "Observation-318278",
        "status": "final",
        "code": {
          "coding": [
            {
              "system": "http://loinc.org",
              "code": "39156-5",
              "display": "BMI"
            }
          ]
        },
        "subject": {
          "reference": "Patient/Patient-6556",
          "display": "Melvin Dale Matthews"
        },
        "context": {
          "reference": "Encounter/Encounter-1280",
          "display": "Wellness Visit"
        },
        "effectiveDateTime": "2004-01-19T00:00:00-05:00",
        "performer": [
          {
            "reference": "Practitioner/Practitioner-2533",
            "display": "Lena Dickerson Ballard MD"
          }
        ],
        "valueQuantity": {
          "value": 22.823140003725257,
          "unit": "kg/m2"
        }
      },
      "request": {
        "method": "PUT",
        "url": "http://localhost:8080/cqf-ruler/baseDstu3Observation/Observation-318278"
      }
    },
    {
      "fullUrl": "http://localhost:8080/cqf-ruler/baseDstu3Observation/Observation-318279",
      "resource": {
        "resourceType": "Observation",
        "id": "Observation-318279",
        "status": "final",
        "code": {
          "coding": [
            {
              "system": "http://loinc.org",
              "code": "8310-5",
              "display": "Temperature"
            }
          ]
        },
        "subject": {
          "reference": "Patient/Patient-6556",
          "display": "Melvin Dale Matthews"
        },
        "context": {
          "reference": "Encounter/Encounter-1280",
          "display": "Wellness Visit"
        },
        "effectiveDateTime": "2004-01-19T00:00:00-05:00",
        "performer": [
          {
            "reference": "Practitioner/Practitioner-2533",
            "display": "Lena Dickerson Ballard MD"
          }
        ],
        "valueQuantity": {
          "value": 37.0,
          "unit": "C"
        }
      },
      "request": {
        "method": "PUT",
        "url": "http://localhost:8080/cqf-ruler/baseDstu3Observation/Observation-318279"
      }
    },
    {
      "fullUrl": "http://localhost:8080/cqf-ruler/baseDstu3Observation/Observation-318280",
      "resource": {
        "resourceType": "Observation",
        "id": "Observation-318280",
        "status": "final",
        "code": {
          "coding": [
            {
              "system": "http://loinc.org",
              "code": "8459-0",
              "display": "Systolic Blood Pressure"
            }
          ]
        },
        "subject": {
          "reference": "Patient/Patient-6556",
          "display": "Melvin Dale Matthews"
        },
        "context": {
          "reference": "Encounter/Encounter-1280",
          "display": "Wellness Visit"
        },
        "effectiveDateTime": "2004-01-19T00:00:00-05:00",
        "performer": [
          {
            "reference": "Practitioner/Practitioner-2533",
            "display": "Lena Dickerson Ballard MD"
          }
        ],
        "valueQuantity": {
          "value": 124.02378774843392,
          "unit": "mmHg"
        }
      },
      "request": {
        "method": "PUT",
        "url": "http://localhost:8080/cqf-ruler/baseDstu3Observation/Observation-318280"
      }
    },
    {
      "fullUrl": "http://localhost:8080/cqf-ruler/baseDstu3Observation/Observation-318281",
      "resource": {
        "resourceType": "Observation",
        "id": "Observation-318281",
        "status": "final",
        "code": {
          "coding": [
            {
              "system": "http://loinc.org",
              "code": "8453-3",
              "display": "Diastolic Blood Pressure"
            }
          ]
        },
        "subject": {
          "reference": "Patient/Patient-6556",
          "display": "Melvin Dale Matthews"
        },
        "context": {
          "reference": "Encounter/Encounter-1280",
          "display": "Wellness Visit"
        },
        "effectiveDateTime": "2004-01-19T00:00:00-05:00",
        "performer": [
          {
            "reference": "Practitioner/Practitioner-2533",
            "display": "Lena Dickerson Ballard MD"
          }
        ],
        "valueQuantity": {
          "value": 69.7782697937414,
          "unit": "mmHg"
        }
      },
      "request": {
        "method": "PUT",
        "url": "http://localhost:8080/cqf-ruler/baseDstu3Observation/Observation-318281"
      }
    },
    {
      "fullUrl": "http://localhost:8080/cqf-ruler/baseDstu3DiagnosticReport/DiagnosticReport-318275",
      "resource": {
        "resourceType": "DiagnosticReport",
        "id": "DiagnosticReport-318275",
        "status": "final",
        "code": {
          "coding": [
            {
              "system": "http://loinc.org",
              "code": "8716-3",
              "display": "Vital Signs Panel"
            }
          ]
        },
        "subject": {
          "reference": "Patient/Patient-6556",
          "display": "Melvin Dale Matthews"
        },
        "context": {
          "reference": "Encounter/Encounter-1280",
          "display": "Wellness Visit"
        },
        "effectivePeriod": {
          "start": "2004-01-19T00:00:00-05:00",
          "end": "2004-01-19T00:00:00-05:00"
        },
        "issued": "2004-01-19T00:00:00.000-05:00",
        "result": [
          {
            "reference": "Observation/Observation-318276",
            "display": "Height"
          },
          {
            "reference": "Observation/Observation-318277",
            "display": "Weight"
          },
          {
            "reference": "Observation/Observation-318278",
            "display": "BMI"
          },
          {
            "reference": "Observation/Observation-318279",
            "display": "Temperature"
          },
          {
            "reference": "Observation/Observation-318280",
            "display": "Systolic Blood Pressure"
          },
          {
            "reference": "Observation/Observation-318281",
            "display": "Diastolic Blood Pressure"
          }
        ]
      },
      "request": {
        "method": "PUT",
        "url": "http://localhost:8080/cqf-ruler/baseDstu3DiagnosticReport/DiagnosticReport-318275"
      }
    }
  ]
}