{
  "resourceType": "Bundle",
  "id": "Melvin-Dale-Matthews-6556-Encounter-682",
  "type": "transaction",
  "entry": [
    {
      "fullUrl": "http://localhost:8080/cqf-ruler/baseDstu3/Encounter/Encounter-682",
      "resource": {
        "resourceType": "Encounter",
        "id": "Encounter-682",
        "meta": {
          "profile": [
            "http://hl7.org/fhir/us/hedis/StructureDefinition/hedis-encounter"
          ]
        },
        "status": "finished",
        "class": {
          "system": "http://hl7.org/fhir/encounter-class",
          "code": "outpatient",
          "display": "Outpatient"
        },
        "type": [
          {
            "coding": [
              {
                "system": "http://snomed.info/sct",
                "code": "170258001",
                "display": "Wellness Visit"
              }
            ]
          }
        ],
        "subject": {
          "reference": "Patient/Patient-6556",
          "display": "Melvin Dale Matthews"
        },
        "participant": [
          {
            "period": {
              "start": "1994-08-19T00:00:00-04:00",
              "end": "1994-08-19T00:00:00-04:00"
            },
            "individual": {
              "reference": "Practitioner/Practitioner-2533",
              "display": "Lena Dickerson Ballard MD"
            }
          }
        ],
        "period": {
          "start": "1994-08-19T00:00:00-04:00",
          "end": "1994-08-19T00:00:00-04:00"
        },
        "location": [
          {
            "location": {
              "reference": "Location/Location-1106",
              "display": "Cranston Family Medical"
            }
          }
        ],
        "serviceProvider": {
          "reference": "Organization/Organization-1106",
          "display": "Cranston Family Medical"
        }
      },
      "request": {
        "method": "PUT",
        "url": "http://localhost:8080/cqf-ruler/baseDstu3/Encounter/Encounter-682"
      }
    },
    {
      "fullUrl": "http://localhost:8080/cqf-ruler/baseDstu3/Immunization/Immunization-107134",
      "resource": {
        "resourceType": "Immunization",
        "id": "Immunization-107134",
        "status": "completed",
        "notGiven": false,
        "vaccineCode": {
          "coding": [
            {
              "system": "http://hl7.org/fhir/sid/cvx",
              "code": "140",
              "display": "Influenza, seasonal, injectable, preservative free"
            }
          ]
        },
        "patient": {
          "reference": "Patient/Patient-6556",
          "display": "Melvin Dale Matthews"
        },
        "date": "1994-08-19T00:00:00-04:00",
        "primarySource": true,
        "location": {
          "reference": "Location/Location-1106",
          "display": "Cranston Family Medical"
        },
        "practitioner": [
          {
            "actor": {
              "reference": "Practitioner/Practitioner-2533",
              "display": "Lena Dickerson Ballard MD"
            }
          }
        ]
      },
      "request": {
        "method": "PUT",
        "url": "http://localhost:8080/cqf-ruler/baseDstu3/Immunization/Immunization-107134"
      }
    },
    {
      "fullUrl": "http://localhost:8080/cqf-ruler/baseDstu3/Observation/Observation-128005",
      "resource": {
        "resourceType": "Observation",
        "id": "Observation-128005",
        "meta": {
          "profile": [
            "http://hl7.org/fhir/us/hedis/StructureDefinition/hedis-observation"
          ]
        },
        "status": "final",
        "code": {
          "coding": [
            {
              "system": "http://loinc.org",
              "code": "8480-6",
              "display": "Systolic blood pressure"
            }
          ]
        },
        "subject": {
          "reference": "Patient/Patient-6556",
          "display": "Melvin Dale Matthews"
        },
        "context": {
          "reference": "Encounter/Encounter-682",
          "display": "Wellness Visit"
        },
        "effectiveDateTime": "1994-08-19T00:00:00-04:00",
        "performer": [
          {
            "reference": "Practitioner/Practitioner-2533",
            "display": "Lena Dickerson Ballard MD"
          }
        ],
        "valueQuantity": {
          "value": 160.708368327763,
          "unit": "mmHg"
        }
      },
      "request": {
        "method": "PUT",
        "url": "http://localhost:8080/cqf-ruler/baseDstu3/Observation/Observation-128005"
      }
    },
    {
      "fullUrl": "http://localhost:8080/cqf-ruler/baseDstu3/Observation/Observation-128006",
      "resource": {
        "resourceType": "Observation",
        "id": "Observation-128006",
        "meta": {
          "profile": [
            "http://hl7.org/fhir/us/hedis/StructureDefinition/hedis-observation"
          ]
        },
        "status": "final",
        "code": {
          "coding": [
            {
              "system": "http://loinc.org",
              "code": "8462-4",
              "display": "Diastolic blood pressure"
            }
          ]
        },
        "subject": {
          "reference": "Patient/Patient-6556",
          "display": "Melvin Dale Matthews"
        },
        "context": {
          "reference": "Encounter/Encounter-682",
          "display": "Wellness Visit"
        },
        "effectiveDateTime": "1994-08-19T00:00:00-04:00",
        "performer": [
          {
            "reference": "Practitioner/Practitioner-2533",
            "display": "Lena Dickerson Ballard MD"
          }
        ],
        "valueQuantity": {
          "value": 116.39919002816342,
          "unit": "mmHg"
        }
      },
      "request": {
        "method": "PUT",
        "url": "http://localhost:8080/cqf-ruler/baseDstu3/Observation/Observation-128006"
      }
    },
    {
      "fullUrl": "http://localhost:8080/cqf-ruler/baseDstu3/Condition/Condition-128007",
      "resource": {
        "resourceType": "Condition",
        "id": "Condition-128007",
        "meta": {
          "profile": [
            "http://hl7.org/fhir/us/hedis/StructureDefinition/hedis-condition"
          ]
        },
        "clinicalStatus": "active",
        "verificationStatus": "confirmed",
        "code": {
          "coding": [
            {
              "system": "TBD",
              "code": "TBD",
              "display": "TBD"
            }
          ]
        },
        "subject": {
          "reference": "Patient/Patient-6556",
          "display": "Melvin Dale Matthews"
        },
        "context": {
          "reference": "Encounter/Encounter-682",
          "display": "Wellness Visit"
        },
        "onsetDateTime": "1994-08-19T00:00:00-04:00",
        "assertedDate": "1994-08-19T00:00:00-04:00",
        "asserter": {
          "reference": "Practitioner/Practitioner-2533",
          "display": "Lena Dickerson Ballard MD"
        }
      },
      "request": {
        "method": "PUT",
        "url": "http://localhost:8080/cqf-ruler/baseDstu3/Condition/Condition-128007"
      }
    },
    {
      "fullUrl": "http://localhost:8080/cqf-ruler/baseDstu3/Observation/Observation-128008",
      "resource": {
        "resourceType": "Observation",
        "id": "Observation-128008",
        "meta": {
          "profile": [
            "http://hl7.org/fhir/us/hedis/StructureDefinition/hedis-observation"
          ]
        },
        "status": "final",
        "code": {
          "coding": [
            {
              "system": "http://loinc.org",
              "code": "8302-2",
              "display": "Body Height"
            }
          ]
        },
        "subject": {
          "reference": "Patient/Patient-6556",
          "display": "Melvin Dale Matthews"
        },
        "context": {
          "reference": "Encounter/Encounter-682",
          "display": "Wellness Visit"
        },
        "effectiveDateTime": "1994-08-19T00:00:00-04:00",
        "performer": [
          {
            "reference": "Practitioner/Practitioner-2533",
            "display": "Lena Dickerson Ballard MD"
          }
        ],
        "valueQuantity": {
          "value": 165.7,
          "unit": "cm"
        }
      },
      "request": {
        "method": "PUT",
        "url": "http://localhost:8080/cqf-ruler/baseDstu3/Observation/Observation-128008"
      }
    },
    {
      "fullUrl": "http://localhost:8080/cqf-ruler/baseDstu3/Observation/Observation-128009",
      "resource": {
        "resourceType": "Observation",
        "id": "Observation-128009",
        "meta": {
          "profile": [
            "http://hl7.org/fhir/us/hedis/StructureDefinition/hedis-observation"
          ]
        },
        "status": "final",
        "code": {
          "coding": [
            {
              "system": "http://loinc.org",
              "code": "29463-7",
              "display": "Body Weight"
            }
          ]
        },
        "subject": {
          "reference": "Patient/Patient-6556",
          "display": "Melvin Dale Matthews"
        },
        "context": {
          "reference": "Encounter/Encounter-682",
          "display": "Wellness Visit"
        },
        "effectiveDateTime": "1994-08-19T00:00:00-04:00",
        "performer": [
          {
            "reference": "Practitioner/Practitioner-2533",
            "display": "Lena Dickerson Ballard MD"
          }
        ],
        "valueQuantity": {
          "value": 49.26713334665083,
          "unit": "kg"
        }
      },
      "request": {
        "method": "PUT",
        "url": "http://localhost:8080/cqf-ruler/baseDstu3/Observation/Observation-128009"
      }
    },
    {
      "fullUrl": "http://localhost:8080/cqf-ruler/baseDstu3/Observation/Observation-128010",
      "resource": {
        "resourceType": "Observation",
        "id": "Observation-128010",
        "meta": {
          "profile": [
            "http://hl7.org/fhir/us/hedis/StructureDefinition/hedis-observation"
          ]
        },
        "status": "final",
        "code": {
          "coding": [
            {
              "system": "http://loinc.org",
              "code": "39156-5",
              "display": "Body Mass Index"
            }
          ]
        },
        "subject": {
          "reference": "Patient/Patient-6556",
          "display": "Melvin Dale Matthews"
        },
        "context": {
          "reference": "Encounter/Encounter-682",
          "display": "Wellness Visit"
        },
        "effectiveDateTime": "1994-08-19T00:00:00-04:00",
        "performer": [
          {
            "reference": "Practitioner/Practitioner-2533",
            "display": "Lena Dickerson Ballard MD"
          }
        ],
        "valueQuantity": {
          "value": 17.943711430940677,
          "unit": "kg/m2"
        }
      },
      "request": {
        "method": "PUT",
        "url": "http://localhost:8080/cqf-ruler/baseDstu3/Observation/Observation-128010"
      }
    },
    {
      "fullUrl": "http://localhost:8080/cqf-ruler/baseDstu3/Observation/Observation-128013",
      "resource": {
        "resourceType": "Observation",
        "id": "Observation-128013",
        "meta": {
          "profile": [
            "http://hl7.org/fhir/us/hedis/StructureDefinition/hedis-observation"
          ]
        },
        "status": "final",
        "code": {
          "coding": [
            {
              "system": "http://loinc.org",
              "code": "55284-4",
              "display": "Blood Pressure"
            }
          ]
        },
        "subject": {
          "reference": "Patient/Patient-6556",
          "display": "Melvin Dale Matthews"
        },
        "context": {
          "reference": "Encounter/Encounter-682",
          "display": "Wellness Visit"
        },
        "effectiveDateTime": "1994-08-19T00:00:00-04:00",
        "valueQuantity": {
          "value": 116.39919002816342,
          "unit": "mmHg"
        },
        "component": [
          {
            "code": {
              "coding": [
                {
                  "system": "http://loinc.org",
                  "code": "8480-6",
                  "display": "Systolic Blood Pressure"
                }
              ]
            }
          },
          {
            "code": {
              "coding": [
                {
                  "system": "http://loinc.org",
                  "code": "8462-4",
                  "display": "Diastolic Blood Pressure"
                }
              ]
            }
          }
        ]
      },
      "request": {
        "method": "PUT",
        "url": "http://localhost:8080/cqf-ruler/baseDstu3/Observation/Observation-128013"
      }
    },
    {
      "fullUrl": "http://localhost:8080/cqf-ruler/baseDstu3/Observation/Observation-128015",
      "resource": {
        "resourceType": "Observation",
        "id": "Observation-128015",
        "status": "final",
        "code": {
          "coding": [
            {
              "system": "http://loinc.org",
              "code": "8302-2",
              "display": "Height"
            }
          ]
        },
        "subject": {
          "reference": "Patient/Patient-6556",
          "display": "Melvin Dale Matthews"
        },
        "context": {
          "reference": "Encounter/Encounter-682",
          "display": "Wellness Visit"
        },
        "effectiveDateTime": "1994-08-19T00:00:00-04:00",
        "performer": [
          {
            "reference": "Practitioner/Practitioner-2533",
            "display": "Lena Dickerson Ballard MD"
          }
        ],
        "valueQuantity": {
          "value": 165.7,
          "unit": "cm"
        }
      },
      "request": {
        "method": "PUT",
        "url": "http://localhost:8080/cqf-ruler/baseDstu3/Observation/Observation-128015"
      }
    },
    {
      "fullUrl": "http://localhost:8080/cqf-ruler/baseDstu3/Observation/Observation-128016",
      "resource": {
        "resourceType": "Observation",
        "id": "Observation-128016",
        "status": "final",
        "code": {
          "coding": [
            {
              "system": "http://loinc.org",
              "code": "29463-7",
              "display": "Weight"
            }
          ]
        },
        "subject": {
          "reference": "Patient/Patient-6556",
          "display": "Melvin Dale Matthews"
        },
        "context": {
          "reference": "Encounter/Encounter-682",
          "display": "Wellness Visit"
        },
        "effectiveDateTime": "1994-08-19T00:00:00-04:00",
        "performer": [
          {
            "reference": "Practitioner/Practitioner-2533",
            "display": "Lena Dickerson Ballard MD"
          }
        ],
        "valueQuantity": {
          "value": 49.26713334665083,
          "unit": "kg"
        }
      },
      "request": {
        "method": "PUT",
        "url": "http://localhost:8080/cqf-ruler/baseDstu3/Observation/Observation-128016"
      }
    },
    {
      "fullUrl": "http://localhost:8080/cqf-ruler/baseDstu3/Observation/Observation-128017",
      "resource": {
        "resourceType": "Observation",
        "id": "Observation-128017",
        "status": "final",
        "code": {
          "coding": [
            {
              "system": "http://loinc.org",
              "code": "39156-5",
              "display": "BMI"
            }
          ]
        },
        "subject": {
          "reference": "Patient/Patient-6556",
          "display": "Melvin Dale Matthews"
        },
        "context": {
          "reference": "Encounter/Encounter-682",
          "display": "Wellness Visit"
        },
        "effectiveDateTime": "1994-08-19T00:00:00-04:00",
        "performer": [
          {
            "reference": "Practitioner/Practitioner-2533",
            "display": "Lena Dickerson Ballard MD"
          }
        ],
        "valueQuantity": {
          "value": 17.943711430940677,
          "unit": "kg/m2"
        }
      },
      "request": {
        "method": "PUT",
        "url": "http://localhost:8080/cqf-ruler/baseDstu3/Observation/Observation-128017"
      }
    },
    {
      "fullUrl": "http://localhost:8080/cqf-ruler/baseDstu3/Observation/Observation-128018",
      "resource": {
        "resourceType": "Observation",
        "id": "Observation-128018",
        "status": "final",
        "code": {
          "coding": [
            {
              "system": "http://loinc.org",
              "code": "8310-5",
              "display": "Temperature"
            }
          ]
        },
        "subject": {
          "reference": "Patient/Patient-6556",
          "display": "Melvin Dale Matthews"
        },
        "context": {
          "reference": "Encounter/Encounter-682",
          "display": "Wellness Visit"
        },
        "effectiveDateTime": "1994-08-19T00:00:00-04:00",
        "performer": [
          {
            "reference": "Practitioner/Practitioner-2533",
            "display": "Lena Dickerson Ballard MD"
          }
        ],
        "valueQuantity": {
          "value": 37.0,
          "unit": "C"
        }
      },
      "request": {
        "method": "PUT",
        "url": "http://localhost:8080/cqf-ruler/baseDstu3/Observation/Observation-128018"
      }
    },
    {
      "fullUrl": "http://localhost:8080/cqf-ruler/baseDstu3/Observation/Observation-128019",
      "resource": {
        "resourceType": "Observation",
        "id": "Observation-128019",
        "status": "final",
        "code": {
          "coding": [
            {
              "system": "http://loinc.org",
              "code": "8459-0",
              "display": "Systolic Blood Pressure"
            }
          ]
        },
        "subject": {
          "reference": "Patient/Patient-6556",
          "display": "Melvin Dale Matthews"
        },
        "context": {
          "reference": "Encounter/Encounter-682",
          "display": "Wellness Visit"
        },
        "effectiveDateTime": "1994-08-19T00:00:00-04:00",
        "performer": [
          {
            "reference": "Practitioner/Practitioner-2533",
            "display": "Lena Dickerson Ballard MD"
          }
        ],
        "valueQuantity": {
          "value": 160.708368327763,
          "unit": "mmHg"
        }
      },
      "request": {
        "method": "PUT",
        "url": "http://localhost:8080/cqf-ruler/baseDstu3/Observation/Observation-128019"
      }
    },
    {
      "fullUrl": "http://localhost:8080/cqf-ruler/baseDstu3/Observation/Observation-128020",
      "resource": {
        "resourceType": "Observation",
        "id": "Observation-128020",
        "status": "final",
        "code": {
          "coding": [
            {
              "system": "http://loinc.org",
              "code": "8453-3",
              "display": "Diastolic Blood Pressure"
            }
          ]
        },
        "subject": {
          "reference": "Patient/Patient-6556",
          "display": "Melvin Dale Matthews"
        },
        "context": {
          "reference": "Encounter/Encounter-682",
          "display": "Wellness Visit"
        },
        "effectiveDateTime": "1994-08-19T00:00:00-04:00",
        "performer": [
          {
            "reference": "Practitioner/Practitioner-2533",
            "display": "Lena Dickerson Ballard MD"
          }
        ],
        "valueQuantity": {
          "value": 116.39919002816342,
          "unit": "mmHg"
        }
      },
      "request": {
        "method": "PUT",
        "url": "http://localhost:8080/cqf-ruler/baseDstu3/Observation/Observation-128020"
      }
    },
    {
      "fullUrl": "http://localhost:8080/cqf-ruler/baseDstu3/DiagnosticReport/DiagnosticReport-128014",
      "resource": {
        "resourceType": "DiagnosticReport",
        "id": "DiagnosticReport-128014",
        "meta": {
          "profile": [
            "http://hl7.org/fhir/us/hedis/StructureDefinition/hedis-diagnosticreport"
          ]
        },
        "status": "final",
        "category": {
          "coding": [
            {
              "system": "http://hl7.org/fhir/ValueSet/diagnostic-service-sections",
              "code": "LAB",
              "display": "Laboratory"
            }
          ]
        },
        "code": {
          "coding": [
            {
              "system": "http://loinc.org",
              "code": "8716-3",
              "display": "Vital Signs Panel"
            }
          ]
        },
        "subject": {
          "reference": "Patient/Patient-6556",
          "display": "Melvin Dale Matthews"
        },
        "context": {
          "reference": "Encounter/Encounter-682",
          "display": "Wellness Visit"
        },
        "effectivePeriod": {
          "start": "1994-08-19T00:00:00-04:00",
          "end": "1994-08-19T00:00:00-04:00"
        },
        "issued": "1994-08-19T00:00:00.000-04:00",
        "result": [
          {
            "reference": "Observation/Observation-128015",
            "display": "Height"
          },
          {
            "reference": "Observation/Observation-128016",
            "display": "Weight"
          },
          {
            "reference": "Observation/Observation-128017",
            "display": "BMI"
          },
          {
            "reference": "Observation/Observation-128018",
            "display": "Temperature"
          },
          {
            "reference": "Observation/Observation-128019",
            "display": "Systolic Blood Pressure"
          },
          {
            "reference": "Observation/Observation-128020",
            "display": "Diastolic Blood Pressure"
          }
        ]
      },
      "request": {
        "method": "PUT",
        "url": "http://localhost:8080/cqf-ruler/baseDstu3/DiagnosticReport/DiagnosticReport-128014"
      }
    }
  ]
}