{
  "resourceType": "Bundle",
  "id": "Melvin-Dale-Matthews-6556-Encounter-911",
  "type": "transaction",
  "entry": [
    {
      "fullUrl": "http://localhost:8080/cqf-ruler/baseDstu3/Encounter/Encounter-911",
      "resource": {
        "resourceType": "Encounter",
        "id": "Encounter-911",
        "meta": {
          "profile": [
            "http://hl7.org/fhir/us/hedis/StructureDefinition/hedis-encounter"
          ]
        },
        "status": "finished",
        "class": {
          "system": "http://hl7.org/fhir/encounter-class",
          "code": "outpatient",
          "display": "Outpatient"
        },
        "subject": {
          "reference": "Patient/Patient-6556",
          "display": "Melvin Dale Matthews"
        },
        "participant": [
          {
            "period": {
              "start": "1997-07-25T00:00:00-04:00",
              "end": "1997-07-25T00:00:00-04:00"
            },
            "individual": {
              "reference": "Practitioner/Practitioner-2533",
              "display": "Lena Dickerson Ballard MD"
            }
          }
        ],
        "period": {
          "start": "1997-07-25T00:00:00-04:00",
          "end": "1997-07-25T00:00:00-04:00"
        },
        "location": [
          {
            "location": {
              "reference": "Location/Location-1106",
              "display": "Cranston Family Medical"
            }
          }
        ],
        "serviceProvider": {
          "reference": "Organization/Organization-1106",
          "display": "Cranston Family Medical"
        }
      },
      "request": {
        "method": "PUT",
        "url": "http://localhost:8080/cqf-ruler/baseDstu3/Encounter/Encounter-911"
      }
    },
    {
      "fullUrl": "http://localhost:8080/cqf-ruler/baseDstu3/Immunization/Immunization-170424",
      "resource": {
        "resourceType": "Immunization",
        "id": "Immunization-170424",
        "status": "completed",
        "notGiven": false,
        "vaccineCode": {
          "coding": [
            {
              "system": "http://hl7.org/fhir/sid/cvx",
              "code": "140",
              "display": "Influenza, seasonal, injectable, preservative free"
            }
          ]
        },
        "patient": {
          "reference": "Patient/Patient-6556",
          "display": "Melvin Dale Matthews"
        },
        "date": "1997-07-25T00:00:00-04:00",
        "primarySource": true,
        "location": {
          "reference": "Location/Location-1106",
          "display": "Cranston Family Medical"
        },
        "practitioner": [
          {
            "actor": {
              "reference": "Practitioner/Practitioner-2533",
              "display": "Lena Dickerson Ballard MD"
            }
          }
        ]
      },
      "request": {
        "method": "PUT",
        "url": "http://localhost:8080/cqf-ruler/baseDstu3/Immunization/Immunization-170424"
      }
    },
    {
      "fullUrl": "http://localhost:8080/cqf-ruler/baseDstu3/Immunization/Immunization-170425",
      "resource": {
        "resourceType": "Immunization",
        "id": "Immunization-170425",
        "status": "completed",
        "notGiven": false,
        "vaccineCode": {
          "coding": [
            {
              "system": "http://hl7.org/fhir/sid/cvx",
              "code": "114",
              "display": "meningococcal MCV4P"
            }
          ]
        },
        "patient": {
          "reference": "Patient/Patient-6556",
          "display": "Melvin Dale Matthews"
        },
        "date": "1997-07-25T00:00:00-04:00",
        "primarySource": true,
        "location": {
          "reference": "Location/Location-1106",
          "display": "Cranston Family Medical"
        },
        "practitioner": [
          {
            "actor": {
              "reference": "Practitioner/Practitioner-2533",
              "display": "Lena Dickerson Ballard MD"
            }
          }
        ]
      },
      "request": {
        "method": "PUT",
        "url": "http://localhost:8080/cqf-ruler/baseDstu3/Immunization/Immunization-170425"
      }
    },
    {
      "fullUrl": "http://localhost:8080/cqf-ruler/baseDstu3/Observation/Observation-191550",
      "resource": {
        "resourceType": "Observation",
        "id": "Observation-191550",
        "meta": {
          "profile": [
            "http://hl7.org/fhir/us/hedis/StructureDefinition/hedis-observation"
          ]
        },
        "status": "final",
        "code": {
          "coding": [
            {
              "system": "http://loinc.org",
              "code": "8480-6",
              "display": "Systolic blood pressure"
            }
          ]
        },
        "subject": {
          "reference": "Patient/Patient-6556",
          "display": "Melvin Dale Matthews"
        },
        "context": {
          "reference": "Encounter/Encounter-911",
          "display": "Wellness Visit"
        },
        "effectiveDateTime": "1997-07-25T00:00:00-04:00",
        "performer": [
          {
            "reference": "Practitioner/Practitioner-2533",
            "display": "Lena Dickerson Ballard MD"
          }
        ],
        "valueQuantity": {
          "value": 167.9635057811589,
          "unit": "mmHg"
        }
      },
      "request": {
        "method": "PUT",
        "url": "http://localhost:8080/cqf-ruler/baseDstu3/Observation/Observation-191550"
      }
    },
    {
      "fullUrl": "http://localhost:8080/cqf-ruler/baseDstu3/Observation/Observation-191551",
      "resource": {
        "resourceType": "Observation",
        "id": "Observation-191551",
        "meta": {
          "profile": [
            "http://hl7.org/fhir/us/hedis/StructureDefinition/hedis-observation"
          ]
        },
        "status": "final",
        "code": {
          "coding": [
            {
              "system": "http://loinc.org",
              "code": "8462-4",
              "display": "Diastolic blood pressure"
            }
          ]
        },
        "subject": {
          "reference": "Patient/Patient-6556",
          "display": "Melvin Dale Matthews"
        },
        "context": {
          "reference": "Encounter/Encounter-911",
          "display": "Wellness Visit"
        },
        "effectiveDateTime": "1997-07-25T00:00:00-04:00",
        "performer": [
          {
            "reference": "Practitioner/Practitioner-2533",
            "display": "Lena Dickerson Ballard MD"
          }
        ],
        "valueQuantity": {
          "value": 96.91949491928466,
          "unit": "mmHg"
        }
      },
      "request": {
        "method": "PUT",
        "url": "http://localhost:8080/cqf-ruler/baseDstu3/Observation/Observation-191551"
      }
    },
    {
      "fullUrl": "http://localhost:8080/cqf-ruler/baseDstu3/Condition/Condition-191552",
      "resource": {
        "resourceType": "Condition",
        "id": "Condition-191552",
        "meta": {
          "profile": [
            "http://hl7.org/fhir/us/hedis/StructureDefinition/hedis-condition"
          ]
        },
        "clinicalStatus": "active",
        "verificationStatus": "confirmed",
        "code": {
          "coding": [
            {
              "system": "http://hl7.org/fhir/sid/icd-10-us",
              "code": "I10",
              "display": "Essential (primary) hypertension"
            }
          ]
        },
        "subject": {
          "reference": "Patient/Patient-6556",
          "display": "Melvin Dale Matthews"
        },
        "context": {
          "reference": "Encounter/Encounter-911",
          "display": "Wellness Visit"
        },
        "onsetDateTime": "1997-07-25T00:00:00-04:00",
        "assertedDate": "1997-07-25T00:00:00-04:00",
        "asserter": {
          "reference": "Practitioner/Practitioner-2533",
          "display": "Lena Dickerson Ballard MD"
        }
      },
      "request": {
        "method": "PUT",
        "url": "http://localhost:8080/cqf-ruler/baseDstu3/Condition/Condition-191552"
      }
    },
    {
      "fullUrl": "http://localhost:8080/cqf-ruler/baseDstu3/Observation/Observation-191553",
      "resource": {
        "resourceType": "Observation",
        "id": "Observation-191553",
        "meta": {
          "profile": [
            "http://hl7.org/fhir/us/hedis/StructureDefinition/hedis-observation"
          ]
        },
        "status": "final",
        "code": {
          "coding": [
            {
              "system": "http://loinc.org",
              "code": "8302-2",
              "display": "Body Height"
            }
          ]
        },
        "subject": {
          "reference": "Patient/Patient-6556",
          "display": "Melvin Dale Matthews"
        },
        "context": {
          "reference": "Encounter/Encounter-911",
          "display": "Wellness Visit"
        },
        "effectiveDateTime": "1997-07-25T00:00:00-04:00",
        "performer": [
          {
            "reference": "Practitioner/Practitioner-2533",
            "display": "Lena Dickerson Ballard MD"
          }
        ],
        "valueQuantity": {
          "value": 179.4,
          "unit": "cm"
        }
      },
      "request": {
        "method": "PUT",
        "url": "http://localhost:8080/cqf-ruler/baseDstu3/Observation/Observation-191553"
      }
    },
    {
      "fullUrl": "http://localhost:8080/cqf-ruler/baseDstu3/Observation/Observation-191554",
      "resource": {
        "resourceType": "Observation",
        "id": "Observation-191554",
        "meta": {
          "profile": [
            "http://hl7.org/fhir/us/hedis/StructureDefinition/hedis-observation"
          ]
        },
        "status": "final",
        "code": {
          "coding": [
            {
              "system": "http://loinc.org",
              "code": "29463-7",
              "display": "Body Weight"
            }
          ]
        },
        "subject": {
          "reference": "Patient/Patient-6556",
          "display": "Melvin Dale Matthews"
        },
        "context": {
          "reference": "Encounter/Encounter-911",
          "display": "Wellness Visit"
        },
        "effectiveDateTime": "1997-07-25T00:00:00-04:00",
        "performer": [
          {
            "reference": "Practitioner/Practitioner-2533",
            "display": "Lena Dickerson Ballard MD"
          }
        ],
        "valueQuantity": {
          "value": 45.67832603644073,
          "unit": "kg"
        }
      },
      "request": {
        "method": "PUT",
        "url": "http://localhost:8080/cqf-ruler/baseDstu3/Observation/Observation-191554"
      }
    },
    {
      "fullUrl": "http://localhost:8080/cqf-ruler/baseDstu3/Observation/Observation-191555",
      "resource": {
        "resourceType": "Observation",
        "id": "Observation-191555",
        "meta": {
          "profile": [
            "http://hl7.org/fhir/us/hedis/StructureDefinition/hedis-observation"
          ]
        },
        "status": "final",
        "code": {
          "coding": [
            {
              "system": "http://loinc.org",
              "code": "39156-5",
              "display": "Body Mass Index"
            }
          ]
        },
        "subject": {
          "reference": "Patient/Patient-6556",
          "display": "Melvin Dale Matthews"
        },
        "context": {
          "reference": "Encounter/Encounter-911",
          "display": "Wellness Visit"
        },
        "effectiveDateTime": "1997-07-25T00:00:00-04:00",
        "performer": [
          {
            "reference": "Practitioner/Practitioner-2533",
            "display": "Lena Dickerson Ballard MD"
          }
        ],
        "valueQuantity": {
          "value": 14.192709140850006,
          "unit": "kg/m2"
        }
      },
      "request": {
        "method": "PUT",
        "url": "http://localhost:8080/cqf-ruler/baseDstu3/Observation/Observation-191555"
      }
    },
    {
      "fullUrl": "http://localhost:8080/cqf-ruler/baseDstu3/Observation/Observation-191558",
      "resource": {
        "resourceType": "Observation",
        "id": "Observation-191558",
        "meta": {
          "profile": [
            "http://hl7.org/fhir/us/hedis/StructureDefinition/hedis-observation"
          ]
        },
        "status": "final",
        "code": {
          "coding": [
            {
              "system": "http://loinc.org",
              "code": "55284-4",
              "display": "Blood Pressure"
            }
          ]
        },
        "subject": {
          "reference": "Patient/Patient-6556",
          "display": "Melvin Dale Matthews"
        },
        "context": {
          "reference": "Encounter/Encounter-911",
          "display": "Wellness Visit"
        },
        "effectiveDateTime": "1997-07-25T00:00:00-04:00",
        "valueQuantity": {
          "value": 96.91949491928466,
          "unit": "mmHg"
        },
        "component": [
          {
            "code": {
              "coding": [
                {
                  "system": "http://loinc.org",
                  "code": "8480-6",
                  "display": "Systolic Blood Pressure"
                }
              ]
            }
          },
          {
            "code": {
              "coding": [
                {
                  "system": "http://loinc.org",
                  "code": "8462-4",
                  "display": "Diastolic Blood Pressure"
                }
              ]
            }
          }
        ]
      },
      "request": {
        "method": "PUT",
        "url": "http://localhost:8080/cqf-ruler/baseDstu3/Observation/Observation-191558"
      }
    },
    {
      "fullUrl": "http://localhost:8080/cqf-ruler/baseDstu3/Observation/Observation-191560",
      "resource": {
        "resourceType": "Observation",
        "id": "Observation-191560",
        "status": "final",
        "code": {
          "coding": [
            {
              "system": "http://loinc.org",
              "code": "8302-2",
              "display": "Height"
            }
          ]
        },
        "subject": {
          "reference": "Patient/Patient-6556",
          "display": "Melvin Dale Matthews"
        },
        "context": {
          "reference": "Encounter/Encounter-911",
          "display": "Wellness Visit"
        },
        "effectiveDateTime": "1997-07-25T00:00:00-04:00",
        "performer": [
          {
            "reference": "Practitioner/Practitioner-2533",
            "display": "Lena Dickerson Ballard MD"
          }
        ],
        "valueQuantity": {
          "value": 179.4,
          "unit": "cm"
        }
      },
      "request": {
        "method": "PUT",
        "url": "http://localhost:8080/cqf-ruler/baseDstu3/Observation/Observation-191560"
      }
    },
    {
      "fullUrl": "http://localhost:8080/cqf-ruler/baseDstu3/Observation/Observation-191561",
      "resource": {
        "resourceType": "Observation",
        "id": "Observation-191561",
        "status": "final",
        "code": {
          "coding": [
            {
              "system": "http://loinc.org",
              "code": "29463-7",
              "display": "Weight"
            }
          ]
        },
        "subject": {
          "reference": "Patient/Patient-6556",
          "display": "Melvin Dale Matthews"
        },
        "context": {
          "reference": "Encounter/Encounter-911",
          "display": "Wellness Visit"
        },
        "effectiveDateTime": "1997-07-25T00:00:00-04:00",
        "performer": [
          {
            "reference": "Practitioner/Practitioner-2533",
            "display": "Lena Dickerson Ballard MD"
          }
        ],
        "valueQuantity": {
          "value": 45.67832603644073,
          "unit": "kg"
        }
      },
      "request": {
        "method": "PUT",
        "url": "http://localhost:8080/cqf-ruler/baseDstu3/Observation/Observation-191561"
      }
    },
    {
      "fullUrl": "http://localhost:8080/cqf-ruler/baseDstu3/Observation/Observation-191562",
      "resource": {
        "resourceType": "Observation",
        "id": "Observation-191562",
        "status": "final",
        "code": {
          "coding": [
            {
              "system": "http://loinc.org",
              "code": "39156-5",
              "display": "BMI"
            }
          ]
        },
        "subject": {
          "reference": "Patient/Patient-6556",
          "display": "Melvin Dale Matthews"
        },
        "context": {
          "reference": "Encounter/Encounter-911",
          "display": "Wellness Visit"
        },
        "effectiveDateTime": "1997-07-25T00:00:00-04:00",
        "performer": [
          {
            "reference": "Practitioner/Practitioner-2533",
            "display": "Lena Dickerson Ballard MD"
          }
        ],
        "valueQuantity": {
          "value": 14.192709140850006,
          "unit": "kg/m2"
        }
      },
      "request": {
        "method": "PUT",
        "url": "http://localhost:8080/cqf-ruler/baseDstu3/Observation/Observation-191562"
      }
    },
    {
      "fullUrl": "http://localhost:8080/cqf-ruler/baseDstu3/Observation/Observation-191563",
      "resource": {
        "resourceType": "Observation",
        "id": "Observation-191563",
        "status": "final",
        "code": {
          "coding": [
            {
              "system": "http://loinc.org",
              "code": "8310-5",
              "display": "Temperature"
            }
          ]
        },
        "subject": {
          "reference": "Patient/Patient-6556",
          "display": "Melvin Dale Matthews"
        },
        "context": {
          "reference": "Encounter/Encounter-911",
          "display": "Wellness Visit"
        },
        "effectiveDateTime": "1997-07-25T00:00:00-04:00",
        "performer": [
          {
            "reference": "Practitioner/Practitioner-2533",
            "display": "Lena Dickerson Ballard MD"
          }
        ],
        "valueQuantity": {
          "value": 37.0,
          "unit": "C"
        }
      },
      "request": {
        "method": "PUT",
        "url": "http://localhost:8080/cqf-ruler/baseDstu3/Observation/Observation-191563"
      }
    },
    {
      "fullUrl": "http://localhost:8080/cqf-ruler/baseDstu3/Observation/Observation-191564",
      "resource": {
        "resourceType": "Observation",
        "id": "Observation-191564",
        "status": "final",
        "code": {
          "coding": [
            {
              "system": "http://loinc.org",
              "code": "8459-0",
              "display": "Systolic Blood Pressure"
            }
          ]
        },
        "subject": {
          "reference": "Patient/Patient-6556",
          "display": "Melvin Dale Matthews"
        },
        "context": {
          "reference": "Encounter/Encounter-911",
          "display": "Wellness Visit"
        },
        "effectiveDateTime": "1997-07-25T00:00:00-04:00",
        "performer": [
          {
            "reference": "Practitioner/Practitioner-2533",
            "display": "Lena Dickerson Ballard MD"
          }
        ],
        "valueQuantity": {
          "value": 167.9635057811589,
          "unit": "mmHg"
        }
      },
      "request": {
        "method": "PUT",
        "url": "http://localhost:8080/cqf-ruler/baseDstu3/Observation/Observation-191564"
      }
    },
    {
      "fullUrl": "http://localhost:8080/cqf-ruler/baseDstu3/Observation/Observation-191565",
      "resource": {
        "resourceType": "Observation",
        "id": "Observation-191565",
        "status": "final",
        "code": {
          "coding": [
            {
              "system": "http://loinc.org",
              "code": "8453-3",
              "display": "Diastolic Blood Pressure"
            }
          ]
        },
        "subject": {
          "reference": "Patient/Patient-6556",
          "display": "Melvin Dale Matthews"
        },
        "context": {
          "reference": "Encounter/Encounter-911",
          "display": "Wellness Visit"
        },
        "effectiveDateTime": "1997-07-25T00:00:00-04:00",
        "performer": [
          {
            "reference": "Practitioner/Practitioner-2533",
            "display": "Lena Dickerson Ballard MD"
          }
        ],
        "valueQuantity": {
          "value": 96.91949491928466,
          "unit": "mmHg"
        }
      },
      "request": {
        "method": "PUT",
        "url": "http://localhost:8080/cqf-ruler/baseDstu3/Observation/Observation-191565"
      }
    },
    {
      "fullUrl": "http://localhost:8080/cqf-ruler/baseDstu3/DiagnosticReport/DiagnosticReport-191559",
      "resource": {
        "resourceType": "DiagnosticReport",
        "id": "DiagnosticReport-191559",
        "meta": {
          "profile": [
            "http://hl7.org/fhir/us/hedis/StructureDefinition/hedis-diagnosticreport"
          ]
        },
        "status": "final",
        "category": {
          "coding": [
            {
              "system": "http://hl7.org/fhir/ValueSet/diagnostic-service-sections",
              "code": "LAB",
              "display": "Laboratory"
            }
          ]
        },
        "code": {
          "coding": [
            {
              "system": "http://loinc.org",
              "code": "8716-3",
              "display": "Vital Signs Panel"
            }
          ]
        },
        "subject": {
          "reference": "Patient/Patient-6556",
          "display": "Melvin Dale Matthews"
        },
        "context": {
          "reference": "Encounter/Encounter-911",
          "display": "Wellness Visit"
        },
        "effectivePeriod": {
          "start": "1997-07-25T00:00:00-04:00",
          "end": "1997-07-25T00:00:00-04:00"
        },
        "issued": "1997-07-25T00:00:00.000-04:00",
        "result": [
          {
            "reference": "Observation/Observation-191560",
            "display": "Height"
          },
          {
            "reference": "Observation/Observation-191561",
            "display": "Weight"
          },
          {
            "reference": "Observation/Observation-191562",
            "display": "BMI"
          },
          {
            "reference": "Observation/Observation-191563",
            "display": "Temperature"
          },
          {
            "reference": "Observation/Observation-191564",
            "display": "Systolic Blood Pressure"
          },
          {
            "reference": "Observation/Observation-191565",
            "display": "Diastolic Blood Pressure"
          }
        ]
      },
      "request": {
        "method": "PUT",
        "url": "http://localhost:8080/cqf-ruler/baseDstu3/DiagnosticReport/DiagnosticReport-191559"
      }
    }
  ]
}