{
  "resourceType": "Bundle",
  "id": "Melvin-Dale-Matthews-6556-Encounter-1038",
  "type": "transaction",
  "entry": [
    {
      "fullUrl": "http://localhost:8080/cqf-ruler/baseDstu3/Encounter/Encounter-1038",
      "resource": {
        "resourceType": "Encounter",
        "id": "Encounter-1038",
        "status": "finished",
        "class": {
          "system": "http://hl7.org/fhir/encounter-class",
          "code": "outpatient",
          "display": "Inpatient"
        },
        "subject": {
          "reference": "Patient/Patient-6556",
          "display": "Melvin Dale Matthews"
        },
        "participant": [
          {
            "period": {
              "start": "1999-05-21T00:00:00-04:00",
              "end": "1999-05-21T00:00:00-04:00"
            },
            "individual": {
              "reference": "Practitioner/Practitioner-2533",
              "display": "Lena Dickerson Ballard MD"
            }
          }
        ],
        "period": {
          "start": "1999-05-21T00:00:00-04:00",
          "end": "1999-05-21T00:00:00-04:00"
        },
        "location": [
          {
            "location": {
              "reference": "Location/Location-1106",
              "display": "Cranston Family Medical"
            }
          }
        ],
        "serviceProvider": {
          "reference": "Organization/Organization-1106",
          "display": "Cranston Family Medical"
        }
      },
      "request": {
        "method": "PUT",
        "url": "http://localhost:8080/cqf-ruler/baseDstu3/Encounter/Encounter-1038"
      }
    },
    {
      "fullUrl": "http://localhost:8080/cqf-ruler/baseDstu3/Immunization/Immunization-206410",
      "resource": {
        "resourceType": "Immunization",
        "id": "Immunization-206410",
        "status": "completed",
        "notGiven": false,
        "vaccineCode": {
          "coding": [
            {
              "system": "http://hl7.org/fhir/sid/cvx",
              "code": "140",
              "display": "Influenza, seasonal, injectable, preservative free"
            }
          ]
        },
        "patient": {
          "reference": "Patient/Patient-6556",
          "display": "Melvin Dale Matthews"
        },
        "date": "1999-05-21T00:00:00-04:00",
        "primarySource": true,
        "location": {
          "reference": "Location/Location-1106",
          "display": "Cranston Family Medical"
        },
        "practitioner": [
          {
            "actor": {
              "reference": "Practitioner/Practitioner-2533",
              "display": "Lena Dickerson Ballard MD"
            }
          }
        ]
      },
      "request": {
        "method": "PUT",
        "url": "http://localhost:8080/cqf-ruler/baseDstu3/Immunization/Immunization-206410"
      }
    },
    {
      "fullUrl": "http://localhost:8080/cqf-ruler/baseDstu3/Observation/Observation-227612",
      "resource": {
        "resourceType": "Observation",
        "id": "Observation-227612",
        "status": "final",
        "code": {
          "coding": [
            {
              "system": "http://loinc.org",
              "code": "8480-6",
              "display": "Systolic blood pressure"
            }
          ]
        },
        "subject": {
          "reference": "Patient/Patient-6556",
          "display": "Melvin Dale Matthews"
        },
        "context": {
          "reference": "Encounter/Encounter-1038",
          "display": "Wellness Visit"
        },
        "effectivePeriod": {
          "start": "1999-05-21T00:00:00-04:00",
          "end": "1999-05-21T00:00:00-04:00"
        },
        "performer": [
          {
            "reference": "Practitioner/Practitioner-2533",
            "display": "Lena Dickerson Ballard MD"
          }
        ],
        "valueQuantity": {
          "value": 103.75109008492323,
          "unit": "mmHg"
        }
      },
      "request": {
        "method": "PUT",
        "url": "http://localhost:8080/cqf-ruler/baseDstu3/Observation/Observation-227612"
      }
    },
    {
      "fullUrl": "http://localhost:8080/cqf-ruler/baseDstu3/Observation/Observation-227613",
      "resource": {
        "resourceType": "Observation",
        "id": "Observation-227613",
        "status": "final",
        "code": {
          "coding": [
            {
              "system": "http://loinc.org",
              "code": "8462-4",
              "display": "Diastolic blood pressure"
            }
          ]
        },
        "subject": {
          "reference": "Patient/Patient-6556",
          "display": "Melvin Dale Matthews"
        },
        "context": {
          "reference": "Encounter/Encounter-1038",
          "display": "Wellness Visit"
        },
        "effectivePeriod": {
          "start": "1999-05-21T00:00:00-04:00",
          "end": "1999-05-21T00:00:00-04:00"
        },
        "performer": [
          {
            "reference": "Practitioner/Practitioner-2533",
            "display": "Lena Dickerson Ballard MD"
          }
        ],
        "valueQuantity": {
          "value": 81.15408094537175,
          "unit": "mmHg"
        }
      },
      "request": {
        "method": "PUT",
        "url": "http://localhost:8080/cqf-ruler/baseDstu3/Observation/Observation-227613"
      }
    },
    {
      "fullUrl": "http://localhost:8080/cqf-ruler/baseDstu3/Observation/Observation-227614",
      "resource": {
        "resourceType": "Observation",
        "id": "Observation-227614",
        "status": "final",
        "code": {
          "coding": [
            {
              "system": "http://loinc.org",
              "code": "8302-2",
              "display": "Body Height"
            }
          ]
        },
        "subject": {
          "reference": "Patient/Patient-6556",
          "display": "Melvin Dale Matthews"
        },
        "context": {
          "reference": "Encounter/Encounter-1038",
          "display": "Wellness Visit"
        },
        "effectivePeriod": {
          "start": "1999-05-21T00:00:00-04:00",
          "end": "1999-05-21T00:00:00-04:00"
        },
        "performer": [
          {
            "reference": "Practitioner/Practitioner-2533",
            "display": "Lena Dickerson Ballard MD"
          }
        ],
        "valueQuantity": {
          "value": 181.1,
          "unit": "cm"
        }
      },
      "request": {
        "method": "PUT",
        "url": "http://localhost:8080/cqf-ruler/baseDstu3/Observation/Observation-227614"
      }
    },
    {
      "fullUrl": "http://localhost:8080/cqf-ruler/baseDstu3/Observation/Observation-227615",
      "resource": {
        "resourceType": "Observation",
        "id": "Observation-227615",
        "status": "final",
        "code": {
          "coding": [
            {
              "system": "http://loinc.org",
              "code": "29463-7",
              "display": "Body Weight"
            }
          ]
        },
        "subject": {
          "reference": "Patient/Patient-6556",
          "display": "Melvin Dale Matthews"
        },
        "context": {
          "reference": "Encounter/Encounter-1038",
          "display": "Wellness Visit"
        },
        "effectivePeriod": {
          "start": "1999-05-21T00:00:00-04:00",
          "end": "1999-05-21T00:00:00-04:00"
        },
        "performer": [
          {
            "reference": "Practitioner/Practitioner-2533",
            "display": "Lena Dickerson Ballard MD"
          }
        ],
        "valueQuantity": {
          "value": 61.68425465565457,
          "unit": "kg"
        }
      },
      "request": {
        "method": "PUT",
        "url": "http://localhost:8080/cqf-ruler/baseDstu3/Observation/Observation-227615"
      }
    },
    {
      "fullUrl": "http://localhost:8080/cqf-ruler/baseDstu3/Observation/Observation-227616",
      "resource": {
        "resourceType": "Observation",
        "id": "Observation-227616",
        "status": "final",
        "code": {
          "coding": [
            {
              "system": "http://loinc.org",
              "code": "39156-5",
              "display": "Body Mass Index"
            }
          ]
        },
        "subject": {
          "reference": "Patient/Patient-6556",
          "display": "Melvin Dale Matthews"
        },
        "context": {
          "reference": "Encounter/Encounter-1038",
          "display": "Wellness Visit"
        },
        "effectivePeriod": {
          "start": "1999-05-21T00:00:00-04:00",
          "end": "1999-05-21T00:00:00-04:00"
        },
        "performer": [
          {
            "reference": "Practitioner/Practitioner-2533",
            "display": "Lena Dickerson Ballard MD"
          }
        ],
        "valueQuantity": {
          "value": 18.80777500758588,
          "unit": "kg/m2"
        }
      },
      "request": {
        "method": "PUT",
        "url": "http://localhost:8080/cqf-ruler/baseDstu3/Observation/Observation-227616"
      }
    },
    {
      "fullUrl": "http://localhost:8080/cqf-ruler/baseDstu3/Observation/Observation-227619",
      "resource": {
        "resourceType": "Observation",
        "id": "Observation-227619",
        "status": "final",
        "category": [
          {
            "coding": [
              {
                "system": "http://hl7.org/fhir/observation-category",
                "code": "vital-signs",
                "display": "vital-signs"
              }
            ]
          }
        ],
        "code": {
          "coding": [
            {
              "system": "http://loinc.org",
              "code": "55284-4",
              "display": "Blood Pressure"
            }
          ]
        },
        "subject": {
          "reference": "Patient/Patient-6556",
          "display": "Melvin Dale Matthews"
        },
        "context": {
          "reference": "Encounter/Encounter-1038",
          "display": "Wellness Visit"
        },
        "effectivePeriod": {
          "start": "1999-05-21T00:00:00-04:00",
          "end": "1999-05-21T00:00:00-04:00"
        },
        "valueQuantity": {
          "value": 81.15408094537175,
          "unit": "mmHg"
        },
        "component": [
          {
            "code": {
              "coding": [
                {
                  "system": "http://loinc.org",
                  "code": "8480-6",
                  "display": "Systolic Blood Pressure"
                }
              ]
            }
          },
          {
            "code": {
              "coding": [
                {
                  "system": "http://loinc.org",
                  "code": "8462-4",
                  "display": "Diastolic Blood Pressure"
                }
              ]
            }
          }
        ]
      },
      "request": {
        "method": "PUT",
        "url": "http://localhost:8080/cqf-ruler/baseDstu3/Observation/Observation-227619"
      }
    },
    {
      "fullUrl": "http://localhost:8080/cqf-ruler/baseDstu3/Observation/Observation-227621",
      "resource": {
        "resourceType": "Observation",
        "id": "Observation-227621",
        "status": "final",
        "code": {
          "coding": [
            {
              "system": "http://loinc.org",
              "code": "8302-2",
              "display": "Height"
            }
          ]
        },
        "subject": {
          "reference": "Patient/Patient-6556",
          "display": "Melvin Dale Matthews"
        },
        "context": {
          "reference": "Encounter/Encounter-1038",
          "display": "Wellness Visit"
        },
        "effectiveDateTime": "1999-05-21T00:00:00-04:00",
        "performer": [
          {
            "reference": "Practitioner/Practitioner-2533",
            "display": "Lena Dickerson Ballard MD"
          }
        ],
        "valueQuantity": {
          "value": 181.1,
          "unit": "cm"
        }
      },
      "request": {
        "method": "PUT",
        "url": "http://localhost:8080/cqf-ruler/baseDstu3/Observation/Observation-227621"
      }
    },
    {
      "fullUrl": "http://localhost:8080/cqf-ruler/baseDstu3/Observation/Observation-227622",
      "resource": {
        "resourceType": "Observation",
        "id": "Observation-227622",
        "status": "final",
        "code": {
          "coding": [
            {
              "system": "http://loinc.org",
              "code": "29463-7",
              "display": "Weight"
            }
          ]
        },
        "subject": {
          "reference": "Patient/Patient-6556",
          "display": "Melvin Dale Matthews"
        },
        "context": {
          "reference": "Encounter/Encounter-1038",
          "display": "Wellness Visit"
        },
        "effectiveDateTime": "1999-05-21T00:00:00-04:00",
        "performer": [
          {
            "reference": "Practitioner/Practitioner-2533",
            "display": "Lena Dickerson Ballard MD"
          }
        ],
        "valueQuantity": {
          "value": 61.68425465565457,
          "unit": "kg"
        }
      },
      "request": {
        "method": "PUT",
        "url": "http://localhost:8080/cqf-ruler/baseDstu3/Observation/Observation-227622"
      }
    },
    {
      "fullUrl": "http://localhost:8080/cqf-ruler/baseDstu3/Observation/Observation-227623",
      "resource": {
        "resourceType": "Observation",
        "id": "Observation-227623",
        "status": "final",
        "code": {
          "coding": [
            {
              "system": "http://loinc.org",
              "code": "39156-5",
              "display": "BMI"
            }
          ]
        },
        "subject": {
          "reference": "Patient/Patient-6556",
          "display": "Melvin Dale Matthews"
        },
        "context": {
          "reference": "Encounter/Encounter-1038",
          "display": "Wellness Visit"
        },
        "effectiveDateTime": "1999-05-21T00:00:00-04:00",
        "performer": [
          {
            "reference": "Practitioner/Practitioner-2533",
            "display": "Lena Dickerson Ballard MD"
          }
        ],
        "valueQuantity": {
          "value": 18.80777500758588,
          "unit": "kg/m2"
        }
      },
      "request": {
        "method": "PUT",
        "url": "http://localhost:8080/cqf-ruler/baseDstu3/Observation/Observation-227623"
      }
    },
    {
      "fullUrl": "http://localhost:8080/cqf-ruler/baseDstu3/Observation/Observation-227624",
      "resource": {
        "resourceType": "Observation",
        "id": "Observation-227624",
        "status": "final",
        "code": {
          "coding": [
            {
              "system": "http://loinc.org",
              "code": "8310-5",
              "display": "Temperature"
            }
          ]
        },
        "subject": {
          "reference": "Patient/Patient-6556",
          "display": "Melvin Dale Matthews"
        },
        "context": {
          "reference": "Encounter/Encounter-1038",
          "display": "Wellness Visit"
        },
        "effectiveDateTime": "1999-05-21T00:00:00-04:00",
        "performer": [
          {
            "reference": "Practitioner/Practitioner-2533",
            "display": "Lena Dickerson Ballard MD"
          }
        ],
        "valueQuantity": {
          "value": 37.0,
          "unit": "C"
        }
      },
      "request": {
        "method": "PUT",
        "url": "http://localhost:8080/cqf-ruler/baseDstu3/Observation/Observation-227624"
      }
    },
    {
      "fullUrl": "http://localhost:8080/cqf-ruler/baseDstu3/Observation/Observation-227625",
      "resource": {
        "resourceType": "Observation",
        "id": "Observation-227625",
        "status": "final",
        "code": {
          "coding": [
            {
              "system": "http://loinc.org",
              "code": "8459-0",
              "display": "Systolic Blood Pressure"
            }
          ]
        },
        "subject": {
          "reference": "Patient/Patient-6556",
          "display": "Melvin Dale Matthews"
        },
        "context": {
          "reference": "Encounter/Encounter-1038",
          "display": "Wellness Visit"
        },
        "effectiveDateTime": "1999-05-21T00:00:00-04:00",
        "performer": [
          {
            "reference": "Practitioner/Practitioner-2533",
            "display": "Lena Dickerson Ballard MD"
          }
        ],
        "valueQuantity": {
          "value": 103.75109008492323,
          "unit": "mmHg"
        }
      },
      "request": {
        "method": "PUT",
        "url": "http://localhost:8080/cqf-ruler/baseDstu3/Observation/Observation-227625"
      }
    },
    {
      "fullUrl": "http://localhost:8080/cqf-ruler/baseDstu3/Observation/Observation-227626",
      "resource": {
        "resourceType": "Observation",
        "id": "Observation-227626",
        "status": "final",
        "code": {
          "coding": [
            {
              "system": "http://loinc.org",
              "code": "8453-3",
              "display": "Diastolic Blood Pressure"
            }
          ]
        },
        "subject": {
          "reference": "Patient/Patient-6556",
          "display": "Melvin Dale Matthews"
        },
        "context": {
          "reference": "Encounter/Encounter-1038",
          "display": "Wellness Visit"
        },
        "effectiveDateTime": "1999-05-21T00:00:00-04:00",
        "performer": [
          {
            "reference": "Practitioner/Practitioner-2533",
            "display": "Lena Dickerson Ballard MD"
          }
        ],
        "valueQuantity": {
          "value": 81.15408094537175,
          "unit": "mmHg"
        }
      },
      "request": {
        "method": "PUT",
        "url": "http://localhost:8080/cqf-ruler/baseDstu3/Observation/Observation-227626"
      }
    },
    {
      "fullUrl": "http://localhost:8080/cqf-ruler/baseDstu3/DiagnosticReport/DiagnosticReport-227620",
      "resource": {
        "resourceType": "DiagnosticReport",
        "id": "DiagnosticReport-227620",
        "status": "final",
        "code": {
          "coding": [
            {
              "system": "http://loinc.org",
              "code": "8716-3",
              "display": "Vital Signs Panel"
            }
          ]
        },
        "subject": {
          "reference": "Patient/Patient-6556",
          "display": "Melvin Dale Matthews"
        },
        "context": {
          "reference": "Encounter/Encounter-1038",
          "display": "Wellness Visit"
        },
        "effectivePeriod": {
          "start": "1999-05-21T00:00:00-04:00",
          "end": "1999-05-21T00:00:00-04:00"
        },
        "issued": "1999-05-21T00:00:00.000-04:00",
        "result": [
          {
            "reference": "Observation/Observation-227621",
            "display": "Height"
          },
          {
            "reference": "Observation/Observation-227622",
            "display": "Weight"
          },
          {
            "reference": "Observation/Observation-227623",
            "display": "BMI"
          },
          {
            "reference": "Observation/Observation-227624",
            "display": "Temperature"
          },
          {
            "reference": "Observation/Observation-227625",
            "display": "Systolic Blood Pressure"
          },
          {
            "reference": "Observation/Observation-227626",
            "display": "Diastolic Blood Pressure"
          }
        ]
      },
      "request": {
        "method": "PUT",
        "url": "http://localhost:8080/cqf-ruler/baseDstu3/DiagnosticReport/DiagnosticReport-227620"
      }
    }
  ]
}