{
  "resourceType": "Bundle",
  "id": "Kathryn-House-Weeks-6515-Encounter-3147",
  "type": "transaction",
  "entry": [
    {
      "fullUrl": "http://localhost:8080/cqf-ruler/baseDstu3/Encounter/Encounter-3147",
      "resource": {
        "resourceType": "Encounter",
        "id": "Encounter-3147",
        "status": "finished",
        "class": {
          "system": "http://hl7.org/fhir/encounter-class",
          "code": "ambulatory",
          "display": "Ambulatory"
        },
        "subject": {
          "reference": "Patient/Patient-6515",
          "display": "Kathryn House Weeks"
        },
        "participant": [
          {
            "period": {
              "start": "2017-05-13T14:00:00-04:00",
              "end": "2017-05-13T14:00:00-04:00"
            },
            "individual": {
              "reference": "Practitioner/Practitioner-2529",
              "display": "Stanley Floyd Nielsen MD"
            }
          }
        ],
        "period": {
          "start": "2017-05-13T14:00:00-04:00",
          "end": "2017-05-13T14:00:00-04:00"
        },
        "location": [
          {
            "location": {
              "reference": "Location/Location-1002",
              "display": "Gift of Mercy Hospital"
            }
          }
        ],
        "serviceProvider": {
          "reference": "Organization/Organization-1002",
          "display": "Gift of Mercy Hospital"
        }
      },
      "request": {
        "method": "PUT",
        "url": "http://localhost:8080/cqf-ruler/baseDstu3/Encounter/Encounter-3147"
      }
    },
    {
      "fullUrl": "http://localhost:8080/cqf-ruler/baseDstu3/MedicationRequest/MedicationRequest-662387",
      "resource": {
        "resourceType": "MedicationRequest",
        "id": "MedicationRequest-662387",
        "status": "active",
        "intent": "order",
        "medicationCodeableConcept": {
          "coding": [
            {
              "system": "http://www.nlm.nih.gov/research/umls/rxnorm",
              "code": "860975",
              "display": "24 HR Metformin hydrochloride 500 MG Extended Release Oral Tablet"
            }
          ]
        },
        "subject": {
          "reference": "Patient/Patient-6515",
          "display": "Kathryn House Weeks"
        },
        "context": {
          "reference": "Encounter/Encounter-3147",
          "display": "Followup_Visit"
        },
        "authoredOn": "2017-05-13T14:00:00-04:00",
        "reasonCode": [
          {
            "coding": [
              {
                "system": "SNOMED-CT",
                "code": "44054006",
                "display": "Type 2 diabetes mellitus"
              }
            ]
          }
        ],
        "dosageInstruction": [
          {
            "timing": {
              "repeat": {
                "frequency": 1
              }
            },
            "doseQuantity": {
              "value": 1
            }
          }
        ],
        "dispenseRequest": {
          "validityPeriod": {
            "start": "2017-05-13T14:00:00-04:00",
            "end": "2017-05-13T14:00:00-04:00"
          }
        }
      },
      "request": {
        "method": "PUT",
        "url": "http://localhost:8080/cqf-ruler/baseDstu3/MedicationRequest/MedicationRequest-662387"
      }
    },
    {
      "fullUrl": "http://localhost:8080/cqf-ruler/baseDstu3/MedicationRequest/MedicationRequest-662388",
      "resource": {
        "resourceType": "MedicationRequest",
        "id": "MedicationRequest-662388",
        "status": "active",
        "intent": "order",
        "medicationCodeableConcept": {
          "coding": [
            {
              "system": "http://www.nlm.nih.gov/research/umls/rxnorm",
              "code": "1373463",
              "display": "canagliflozin 100 MG Oral Tablet"
            }
          ]
        },
        "subject": {
          "reference": "Patient/Patient-6515",
          "display": "Kathryn House Weeks"
        },
        "context": {
          "reference": "Encounter/Encounter-3147",
          "display": "Followup_Visit"
        },
        "authoredOn": "2017-05-13T14:00:00-04:00",
        "reasonCode": [
          {
            "coding": [
              {
                "system": "SNOMED-CT",
                "code": "44054006",
                "display": "Type 2 diabetes mellitus"
              }
            ]
          }
        ],
        "dosageInstruction": [
          {
            "timing": {
              "repeat": {
                "frequency": 1
              }
            },
            "doseQuantity": {
              "value": 1
            }
          }
        ],
        "dispenseRequest": {
          "validityPeriod": {
            "start": "2017-05-13T14:00:00-04:00",
            "end": "2017-05-13T14:00:00-04:00"
          }
        }
      },
      "request": {
        "method": "PUT",
        "url": "http://localhost:8080/cqf-ruler/baseDstu3/MedicationRequest/MedicationRequest-662388"
      }
    },
    {
      "fullUrl": "http://localhost:8080/cqf-ruler/baseDstu3/MedicationRequest/MedicationRequest-662389",
      "resource": {
        "resourceType": "MedicationRequest",
        "id": "MedicationRequest-662389",
        "status": "active",
        "intent": "order",
        "medicationCodeableConcept": {
          "coding": [
            {
              "system": "http://www.nlm.nih.gov/research/umls/rxnorm",
              "code": "897122",
              "display": "3 ML liraglutide 6 MG/ML Pen Injector"
            }
          ]
        },
        "subject": {
          "reference": "Patient/Patient-6515",
          "display": "Kathryn House Weeks"
        },
        "context": {
          "reference": "Encounter/Encounter-3147",
          "display": "Followup_Visit"
        },
        "authoredOn": "2017-05-13T14:00:00-04:00",
        "reasonCode": [
          {
            "coding": [
              {
                "system": "SNOMED-CT",
                "code": "44054006",
                "display": "Type 2 diabetes mellitus"
              }
            ]
          }
        ],
        "dosageInstruction": [
          {
            "timing": {
              "repeat": {
                "frequency": 1
              }
            },
            "doseQuantity": {
              "value": 1
            }
          }
        ],
        "dispenseRequest": {
          "validityPeriod": {
            "start": "2017-05-13T14:00:00-04:00",
            "end": "2017-05-13T14:00:00-04:00"
          }
        }
      },
      "request": {
        "method": "PUT",
        "url": "http://localhost:8080/cqf-ruler/baseDstu3/MedicationRequest/MedicationRequest-662389"
      }
    },
    {
      "fullUrl": "http://localhost:8080/cqf-ruler/baseDstu3/Observation/Observation-662392",
      "resource": {
        "resourceType": "Observation",
        "id": "Observation-662392",
        "status": "final",
        "code": {
          "coding": [
            {
              "system": "http://loinc.org",
              "code": "8302-2",
              "display": "Height"
            }
          ]
        },
        "subject": {
          "reference": "Patient/Patient-6515",
          "display": "Kathryn House Weeks"
        },
        "context": {
          "reference": "Encounter/Encounter-3147",
          "display": "Followup_Visit"
        },
        "effectiveDateTime": "2017-05-13T14:00:00-04:00",
        "performer": [
          {
            "reference": "Practitioner/Practitioner-2529",
            "display": "Stanley Floyd Nielsen MD"
          }
        ],
        "valueQuantity": {
          "value": 163.3,
          "unit": "cm"
        }
      },
      "request": {
        "method": "PUT",
        "url": "http://localhost:8080/cqf-ruler/baseDstu3/Observation/Observation-662392"
      }
    },
    {
      "fullUrl": "http://localhost:8080/cqf-ruler/baseDstu3/Observation/Observation-662393",
      "resource": {
        "resourceType": "Observation",
        "id": "Observation-662393",
        "status": "final",
        "code": {
          "coding": [
            {
              "system": "http://loinc.org",
              "code": "29463-7",
              "display": "Weight"
            }
          ]
        },
        "subject": {
          "reference": "Patient/Patient-6515",
          "display": "Kathryn House Weeks"
        },
        "context": {
          "reference": "Encounter/Encounter-3147",
          "display": "Followup_Visit"
        },
        "effectiveDateTime": "2017-05-13T14:00:00-04:00",
        "performer": [
          {
            "reference": "Practitioner/Practitioner-2529",
            "display": "Stanley Floyd Nielsen MD"
          }
        ],
        "valueQuantity": {
          "value": 76.08971211505698,
          "unit": "kg"
        }
      },
      "request": {
        "method": "PUT",
        "url": "http://localhost:8080/cqf-ruler/baseDstu3/Observation/Observation-662393"
      }
    },
    {
      "fullUrl": "http://localhost:8080/cqf-ruler/baseDstu3/Observation/Observation-662394",
      "resource": {
        "resourceType": "Observation",
        "id": "Observation-662394",
        "status": "final",
        "code": {
          "coding": [
            {
              "system": "http://loinc.org",
              "code": "39156-5",
              "display": "BMI"
            }
          ]
        },
        "subject": {
          "reference": "Patient/Patient-6515",
          "display": "Kathryn House Weeks"
        },
        "context": {
          "reference": "Encounter/Encounter-3147",
          "display": "Followup_Visit"
        },
        "effectiveDateTime": "2017-05-13T14:00:00-04:00",
        "performer": [
          {
            "reference": "Practitioner/Practitioner-2529",
            "display": "Stanley Floyd Nielsen MD"
          }
        ],
        "valueQuantity": {
          "value": 28.53340307589561,
          "unit": "kg/m2"
        }
      },
      "request": {
        "method": "PUT",
        "url": "http://localhost:8080/cqf-ruler/baseDstu3/Observation/Observation-662394"
      }
    },
    {
      "fullUrl": "http://localhost:8080/cqf-ruler/baseDstu3/Observation/Observation-662395",
      "resource": {
        "resourceType": "Observation",
        "id": "Observation-662395",
        "status": "final",
        "code": {
          "coding": [
            {
              "system": "http://loinc.org",
              "code": "8310-5",
              "display": "Temperature"
            }
          ]
        },
        "subject": {
          "reference": "Patient/Patient-6515",
          "display": "Kathryn House Weeks"
        },
        "context": {
          "reference": "Encounter/Encounter-3147",
          "display": "Followup_Visit"
        },
        "effectiveDateTime": "2017-05-13T14:00:00-04:00",
        "performer": [
          {
            "reference": "Practitioner/Practitioner-2529",
            "display": "Stanley Floyd Nielsen MD"
          }
        ],
        "valueQuantity": {
          "value": 37.0,
          "unit": "C"
        }
      },
      "request": {
        "method": "PUT",
        "url": "http://localhost:8080/cqf-ruler/baseDstu3/Observation/Observation-662395"
      }
    },
    {
      "fullUrl": "http://localhost:8080/cqf-ruler/baseDstu3/Observation/Observation-662396",
      "resource": {
        "resourceType": "Observation",
        "id": "Observation-662396",
        "status": "final",
        "code": {
          "coding": [
            {
              "system": "http://loinc.org",
              "code": "8459-0",
              "display": "Systolic Blood Pressure"
            }
          ]
        },
        "subject": {
          "reference": "Patient/Patient-6515",
          "display": "Kathryn House Weeks"
        },
        "context": {
          "reference": "Encounter/Encounter-3147",
          "display": "Followup_Visit"
        },
        "effectiveDateTime": "2017-05-13T14:00:00-04:00",
        "performer": [
          {
            "reference": "Practitioner/Practitioner-2529",
            "display": "Stanley Floyd Nielsen MD"
          }
        ],
        "valueQuantity": {
          "value": 109.29568116958959,
          "unit": "mmHg"
        }
      },
      "request": {
        "method": "PUT",
        "url": "http://localhost:8080/cqf-ruler/baseDstu3/Observation/Observation-662396"
      }
    },
    {
      "fullUrl": "http://localhost:8080/cqf-ruler/baseDstu3/Observation/Observation-662397",
      "resource": {
        "resourceType": "Observation",
        "id": "Observation-662397",
        "status": "final",
        "code": {
          "coding": [
            {
              "system": "http://loinc.org",
              "code": "8453-3",
              "display": "Diastolic Blood Pressure"
            }
          ]
        },
        "subject": {
          "reference": "Patient/Patient-6515",
          "display": "Kathryn House Weeks"
        },
        "context": {
          "reference": "Encounter/Encounter-3147",
          "display": "Followup_Visit"
        },
        "effectiveDateTime": "2017-05-13T14:00:00-04:00",
        "performer": [
          {
            "reference": "Practitioner/Practitioner-2529",
            "display": "Stanley Floyd Nielsen MD"
          }
        ],
        "valueQuantity": {
          "value": 82.65142345657448,
          "unit": "mmHg"
        }
      },
      "request": {
        "method": "PUT",
        "url": "http://localhost:8080/cqf-ruler/baseDstu3/Observation/Observation-662397"
      }
    },
    {
      "fullUrl": "http://localhost:8080/cqf-ruler/baseDstu3/DiagnosticReport/DiagnosticReport-662391",
      "resource": {
        "resourceType": "DiagnosticReport",
        "id": "DiagnosticReport-662391",
        "status": "final",
        "code": {
          "coding": [
            {
              "system": "http://loinc.org",
              "code": "8716-3",
              "display": "Vital Signs Panel"
            }
          ]
        },
        "subject": {
          "reference": "Patient/Patient-6515",
          "display": "Kathryn House Weeks"
        },
        "context": {
          "reference": "Encounter/Encounter-3147",
          "display": "Followup_Visit"
        },
        "effectivePeriod": {
          "start": "2017-05-13T14:00:00-04:00",
          "end": "2017-05-13T14:00:00-04:00"
        },
        "issued": "2017-05-13T14:00:00.000-04:00",
        "result": [
          {
            "reference": "Observation/Observation-662392",
            "display": "Height"
          },
          {
            "reference": "Observation/Observation-662393",
            "display": "Weight"
          },
          {
            "reference": "Observation/Observation-662394",
            "display": "BMI"
          },
          {
            "reference": "Observation/Observation-662395",
            "display": "Temperature"
          },
          {
            "reference": "Observation/Observation-662396",
            "display": "Systolic Blood Pressure"
          },
          {
            "reference": "Observation/Observation-662397",
            "display": "Diastolic Blood Pressure"
          }
        ]
      },
      "request": {
        "method": "PUT",
        "url": "http://localhost:8080/cqf-ruler/baseDstu3/DiagnosticReport/DiagnosticReport-662391"
      }
    }
  ]
}