{
  "resourceType": "Bundle",
  "id": "Kathryn-House-Weeks-6515-Encounter-804",
  "type": "transaction",
  "entry": [
    {
      "fullUrl": "http://localhost:8080/cqf-ruler/baseDstu3/Encounter/Encounter-804",
      "resource": {
        "resourceType": "Encounter",
        "id": "Encounter-804",
        "meta": {
          "profile": [
            "http://hl7.org/fhir/us/hedis/StructureDefinition/hedis-encounter"
          ]
        },
        "status": "finished",
        "class": {
          "system": "http://hl7.org/fhir/encounter-class",
          "code": "ambulatory",
          "display": "Ambulatory"
        },
        "subject": {
          "reference": "Patient/Patient-6515",
          "display": "Kathryn House Weeks"
        },
        "participant": [
          {
            "period": {
              "start": "1995-07-30T10:00:00-04:00",
              "end": "1995-07-30T10:00:00-04:00"
            },
            "individual": {
              "reference": "Practitioner/Practitioner-2526",
              "display": "James Woodward Wilkins MD"
            }
          }
        ],
        "period": {
          "start": "1995-07-30T10:00:00-04:00",
          "end": "1995-07-30T10:00:00-04:00"
        },
        "location": [
          {
            "location": {
              "reference": "Location/Location-1002",
              "display": "Gift of Mercy Hospital"
            }
          }
        ],
        "serviceProvider": {
          "reference": "Organization/Organization-1002",
          "display": "Gift of Mercy Hospital"
        }
      },
      "request": {
        "method": "PUT",
        "url": "http://localhost:8080/cqf-ruler/baseDstu3/Encounter/Encounter-804"
      }
    },
    {
      "fullUrl": "http://localhost:8080/cqf-ruler/baseDstu3/Procedure/Procedure-149409",
      "resource": {
        "resourceType": "Procedure",
        "id": "Procedure-149409",
        "meta": {
          "profile": [
            "http://hl7.org/fhir/us/hedis/StructureDefinition/hedis-procedure"
          ]
        },
        "status": "completed",
        "code": {
          "coding": [
            {
              "system": "TEST",
              "code": "1.1.1.1",
              "display": "Alcohol Screening and Brief Counseling"
            }
          ]
        },
        "subject": {
          "reference": "Patient/Patient-6515",
          "display": "Kathryn House Weeks"
        },
        "context": {
          "reference": "Encounter/Encounter-804",
          "display": "Followup_Encounter"
        },
        "performedPeriod": {
          "start": "1995-07-30T10:00:00-04:00",
          "end": "1995-07-30T10:00:00-04:00"
        },
        "performer": [
          {
            "actor": {
              "reference": "Practitioner/Practitioner-2526",
              "display": "James Woodward Wilkins MD"
            }
          }
        ],
        "location": {
          "reference": "Location/Location-1002",
          "display": "Gift of Mercy Hospital"
        }
      },
      "request": {
        "method": "PUT",
        "url": "http://localhost:8080/cqf-ruler/baseDstu3/Procedure/Procedure-149409"
      }
    },
    {
      "fullUrl": "http://localhost:8080/cqf-ruler/baseDstu3/Observation/Observation-149412",
      "resource": {
        "resourceType": "Observation",
        "id": "Observation-149412",
        "status": "final",
        "code": {
          "coding": [
            {
              "system": "http://loinc.org",
              "code": "8302-2",
              "display": "Height"
            }
          ]
        },
        "subject": {
          "reference": "Patient/Patient-6515",
          "display": "Kathryn House Weeks"
        },
        "context": {
          "reference": "Encounter/Encounter-804",
          "display": "Followup_Encounter"
        },
        "effectiveDateTime": "1995-07-30T10:00:00-04:00",
        "performer": [
          {
            "reference": "Practitioner/Practitioner-2526",
            "display": "James Woodward Wilkins MD"
          }
        ],
        "valueQuantity": {
          "value": 163.3,
          "unit": "cm"
        }
      },
      "request": {
        "method": "PUT",
        "url": "http://localhost:8080/cqf-ruler/baseDstu3/Observation/Observation-149412"
      }
    },
    {
      "fullUrl": "http://localhost:8080/cqf-ruler/baseDstu3/Observation/Observation-149413",
      "resource": {
        "resourceType": "Observation",
        "id": "Observation-149413",
        "status": "final",
        "code": {
          "coding": [
            {
              "system": "http://loinc.org",
              "code": "29463-7",
              "display": "Weight"
            }
          ]
        },
        "subject": {
          "reference": "Patient/Patient-6515",
          "display": "Kathryn House Weeks"
        },
        "context": {
          "reference": "Encounter/Encounter-804",
          "display": "Followup_Encounter"
        },
        "effectiveDateTime": "1995-07-30T10:00:00-04:00",
        "performer": [
          {
            "reference": "Practitioner/Practitioner-2526",
            "display": "James Woodward Wilkins MD"
          }
        ],
        "valueQuantity": {
          "value": 80.26833328789635,
          "unit": "kg"
        }
      },
      "request": {
        "method": "PUT",
        "url": "http://localhost:8080/cqf-ruler/baseDstu3/Observation/Observation-149413"
      }
    },
    {
      "fullUrl": "http://localhost:8080/cqf-ruler/baseDstu3/Observation/Observation-149414",
      "resource": {
        "resourceType": "Observation",
        "id": "Observation-149414",
        "status": "final",
        "code": {
          "coding": [
            {
              "system": "http://loinc.org",
              "code": "39156-5",
              "display": "BMI"
            }
          ]
        },
        "subject": {
          "reference": "Patient/Patient-6515",
          "display": "Kathryn House Weeks"
        },
        "context": {
          "reference": "Encounter/Encounter-804",
          "display": "Followup_Encounter"
        },
        "effectiveDateTime": "1995-07-30T10:00:00-04:00",
        "performer": [
          {
            "reference": "Practitioner/Practitioner-2526",
            "display": "James Woodward Wilkins MD"
          }
        ],
        "valueQuantity": {
          "value": 30.10037289233816,
          "unit": "kg/m2"
        }
      },
      "request": {
        "method": "PUT",
        "url": "http://localhost:8080/cqf-ruler/baseDstu3/Observation/Observation-149414"
      }
    },
    {
      "fullUrl": "http://localhost:8080/cqf-ruler/baseDstu3/Observation/Observation-149415",
      "resource": {
        "resourceType": "Observation",
        "id": "Observation-149415",
        "status": "final",
        "code": {
          "coding": [
            {
              "system": "http://loinc.org",
              "code": "8310-5",
              "display": "Temperature"
            }
          ]
        },
        "subject": {
          "reference": "Patient/Patient-6515",
          "display": "Kathryn House Weeks"
        },
        "context": {
          "reference": "Encounter/Encounter-804",
          "display": "Followup_Encounter"
        },
        "effectiveDateTime": "1995-07-30T10:00:00-04:00",
        "performer": [
          {
            "reference": "Practitioner/Practitioner-2526",
            "display": "James Woodward Wilkins MD"
          }
        ],
        "valueQuantity": {
          "value": 37.0,
          "unit": "C"
        }
      },
      "request": {
        "method": "PUT",
        "url": "http://localhost:8080/cqf-ruler/baseDstu3/Observation/Observation-149415"
      }
    },
    {
      "fullUrl": "http://localhost:8080/cqf-ruler/baseDstu3/Observation/Observation-149416",
      "resource": {
        "resourceType": "Observation",
        "id": "Observation-149416",
        "status": "final",
        "code": {
          "coding": [
            {
              "system": "http://loinc.org",
              "code": "8459-0",
              "display": "Systolic Blood Pressure"
            }
          ]
        },
        "subject": {
          "reference": "Patient/Patient-6515",
          "display": "Kathryn House Weeks"
        },
        "context": {
          "reference": "Encounter/Encounter-804",
          "display": "Followup_Encounter"
        },
        "effectiveDateTime": "1995-07-30T10:00:00-04:00",
        "performer": [
          {
            "reference": "Practitioner/Practitioner-2526",
            "display": "James Woodward Wilkins MD"
          }
        ],
        "valueQuantity": {
          "value": 108.41757909936543,
          "unit": "mmHg"
        }
      },
      "request": {
        "method": "PUT",
        "url": "http://localhost:8080/cqf-ruler/baseDstu3/Observation/Observation-149416"
      }
    },
    {
      "fullUrl": "http://localhost:8080/cqf-ruler/baseDstu3/Observation/Observation-149417",
      "resource": {
        "resourceType": "Observation",
        "id": "Observation-149417",
        "status": "final",
        "code": {
          "coding": [
            {
              "system": "http://loinc.org",
              "code": "8453-3",
              "display": "Diastolic Blood Pressure"
            }
          ]
        },
        "subject": {
          "reference": "Patient/Patient-6515",
          "display": "Kathryn House Weeks"
        },
        "context": {
          "reference": "Encounter/Encounter-804",
          "display": "Followup_Encounter"
        },
        "effectiveDateTime": "1995-07-30T10:00:00-04:00",
        "performer": [
          {
            "reference": "Practitioner/Practitioner-2526",
            "display": "James Woodward Wilkins MD"
          }
        ],
        "valueQuantity": {
          "value": 106.86760021449035,
          "unit": "mmHg"
        }
      },
      "request": {
        "method": "PUT",
        "url": "http://localhost:8080/cqf-ruler/baseDstu3/Observation/Observation-149417"
      }
    },
    {
      "fullUrl": "http://localhost:8080/cqf-ruler/baseDstu3/DiagnosticReport/DiagnosticReport-149411",
      "resource": {
        "resourceType": "DiagnosticReport",
        "id": "DiagnosticReport-149411",
        "meta": {
          "profile": [
            "http://hl7.org/fhir/us/hedis/StructureDefinition/hedis-diagnosticreport"
          ]
        },
        "status": "final",
        "category": {
          "coding": [
            {
              "system": "http://hl7.org/fhir/ValueSet/diagnostic-service-sections",
              "code": "LAB",
              "display": "Laboratory"
            }
          ]
        },
        "code": {
          "coding": [
            {
              "system": "http://loinc.org",
              "code": "8716-3",
              "display": "Vital Signs Panel"
            }
          ]
        },
        "subject": {
          "reference": "Patient/Patient-6515",
          "display": "Kathryn House Weeks"
        },
        "context": {
          "reference": "Encounter/Encounter-804",
          "display": "Followup_Encounter"
        },
        "effectivePeriod": {
          "start": "1995-07-30T10:00:00-04:00",
          "end": "1995-07-30T10:00:00-04:00"
        },
        "issued": "1995-07-30T10:00:00.000-04:00",
        "result": [
          {
            "reference": "Observation/Observation-149412",
            "display": "Height"
          },
          {
            "reference": "Observation/Observation-149413",
            "display": "Weight"
          },
          {
            "reference": "Observation/Observation-149414",
            "display": "BMI"
          },
          {
            "reference": "Observation/Observation-149415",
            "display": "Temperature"
          },
          {
            "reference": "Observation/Observation-149416",
            "display": "Systolic Blood Pressure"
          },
          {
            "reference": "Observation/Observation-149417",
            "display": "Diastolic Blood Pressure"
          }
        ]
      },
      "request": {
        "method": "PUT",
        "url": "http://localhost:8080/cqf-ruler/baseDstu3/DiagnosticReport/DiagnosticReport-149411"
      }
    }
  ]
}