{
  "resourceType": "Bundle",
  "id": "Kathryn-House-Weeks-6515-Encounter-1175",
  "type": "transaction",
  "entry": [
    {
      "fullUrl": "http://localhost:8080/cqf-ruler/baseDstu3Encounter/Encounter-1175",
      "resource": {
        "resourceType": "Encounter",
        "id": "Encounter-1175",
        "status": "finished",
        "class": {
          "system": "http://hl7.org/fhir/encounter-class",
          "code": "outpatient",
          "display": "Inpatient"
        },
        "subject": {
          "reference": "Patient/Patient-6515",
          "display": "Kathryn House Weeks"
        },
        "participant": [
          {
            "period": {
              "start": "2000-10-27T00:00:00-04:00",
              "end": "2000-10-27T00:00:00-04:00"
            },
            "individual": {
              "reference": "Practitioner/Practitioner-2532",
              "display": "Chad Espinoza Potter MD"
            }
          }
        ],
        "period": {
          "start": "2000-10-27T00:00:00-04:00",
          "end": "2000-10-27T00:00:00-04:00"
        },
        "location": [
          {
            "location": {
              "reference": "Location/Location-1105",
              "display": "Bayside Medical Group"
            }
          }
        ],
        "serviceProvider": {
          "reference": "Organization/Organization-1105",
          "display": "Bayside Medical Group"
        }
      },
      "request": {
        "method": "PUT",
        "url": "http://localhost:8080/cqf-ruler/baseDstu3Encounter/Encounter-1175"
      }
    },
    {
      "fullUrl": "http://localhost:8080/cqf-ruler/baseDstu3Immunization/Immunization-228476",
      "resource": {
        "resourceType": "Immunization",
        "id": "Immunization-228476",
        "status": "completed",
        "notGiven": false,
        "vaccineCode": {
          "coding": [
            {
              "system": "http://hl7.org/fhir/sid/cvx",
              "code": "140",
              "display": "Influenza, seasonal, injectable, preservative free"
            }
          ]
        },
        "patient": {
          "reference": "Patient/Patient-6515",
          "display": "Kathryn House Weeks"
        },
        "date": "2000-10-27T00:00:00-04:00",
        "primarySource": true,
        "location": {
          "reference": "Location/Location-1105",
          "display": "Bayside Medical Group"
        },
        "practitioner": [
          {
            "actor": {
              "reference": "Practitioner/Practitioner-2532",
              "display": "Chad Espinoza Potter MD"
            }
          }
        ]
      },
      "request": {
        "method": "PUT",
        "url": "http://localhost:8080/cqf-ruler/baseDstu3Immunization/Immunization-228476"
      }
    },
    {
      "fullUrl": "http://localhost:8080/cqf-ruler/baseDstu3Procedure/Procedure-248918",
      "resource": {
        "resourceType": "Procedure",
        "id": "Procedure-248918",
        "status": "completed",
        "code": {
          "coding": [
            {
              "system": "http://www.ama-assn.org/go/cpt",
              "code": "82270",
              "display": "Blood, occult, by peroxidase activity (eg, guaiac), qualitative; feces, consecutive collected specimens with single determination, for colorectal neoplasm screening (ie, patient was provided 3 cards or single triple card for consecutive collection)"
            }
          ]
        },
        "subject": {
          "reference": "Patient/Patient-6515",
          "display": "Kathryn House Weeks"
        },
        "context": {
          "reference": "Encounter/Encounter-1175",
          "display": "Wellness Visit"
        },
        "performedPeriod": {
          "start": "2000-10-27T00:00:00-04:00",
          "end": "2000-10-27T00:00:00-04:00"
        },
        "performer": [
          {
            "actor": {
              "reference": "Practitioner/Practitioner-2532",
              "display": "Chad Espinoza Potter MD"
            }
          }
        ],
        "location": {
          "reference": "Location/Location-1105",
          "display": "Bayside Medical Group"
        }
      },
      "request": {
        "method": "PUT",
        "url": "http://localhost:8080/cqf-ruler/baseDstu3Procedure/Procedure-248918"
      }
    },
    {
      "fullUrl": "http://localhost:8080/cqf-ruler/baseDstu3Observation/Observation-248919",
      "resource": {
        "resourceType": "Observation",
        "id": "Observation-248919",
        "status": "final",
        "code": {
          "coding": [
            {
              "system": "http://www.ama-assn.org/go/cpt",
              "code": "82270",
              "display": "Blood, occult, by peroxidase activity (eg, guaiac), qualitative; feces, consecutive collected specimens with single determination, for colorectal neoplasm screening (ie, patient was provided 3 cards or single triple card for consecutive collection)"
            }
          ]
        },
        "subject": {
          "reference": "Patient/Patient-6515",
          "display": "Kathryn House Weeks"
        },
        "context": {
          "reference": "Encounter/Encounter-1175",
          "display": "Wellness Visit"
        },
        "effectivePeriod": {
          "start": "2000-10-27T00:00:00-04:00",
          "end": "2000-10-27T00:00:00-04:00"
        },
        "performer": [
          {
            "reference": "Practitioner/Practitioner-2532",
            "display": "Chad Espinoza Potter MD"
          }
        ],
        "valueString": "NEGATIVE"
      },
      "request": {
        "method": "PUT",
        "url": "http://localhost:8080/cqf-ruler/baseDstu3Observation/Observation-248919"
      }
    },
    {
      "fullUrl": "http://localhost:8080/cqf-ruler/baseDstu3Procedure/Procedure-248920",
      "resource": {
        "resourceType": "Procedure",
        "id": "Procedure-248920",
        "status": "completed",
        "code": {
          "coding": [
            {
              "system": "http://www.ama-assn.org/go/cpt",
              "code": "77056",
              "display": "Mammography; bilateral"
            }
          ]
        },
        "subject": {
          "reference": "Patient/Patient-6515",
          "display": "Kathryn House Weeks"
        },
        "context": {
          "reference": "Encounter/Encounter-1175",
          "display": "Wellness Visit"
        },
        "performedPeriod": {
          "start": "2000-10-27T00:00:00-04:00",
          "end": "2000-10-27T00:00:00-04:00"
        },
        "performer": [
          {
            "actor": {
              "reference": "Practitioner/Practitioner-2532",
              "display": "Chad Espinoza Potter MD"
            }
          }
        ],
        "location": {
          "reference": "Location/Location-1105",
          "display": "Bayside Medical Group"
        }
      },
      "request": {
        "method": "PUT",
        "url": "http://localhost:8080/cqf-ruler/baseDstu3Procedure/Procedure-248920"
      }
    },
    {
      "fullUrl": "http://localhost:8080/cqf-ruler/baseDstu3Observation/Observation-248921",
      "resource": {
        "resourceType": "Observation",
        "id": "Observation-248921",
        "status": "final",
        "code": {
          "coding": [
            {
              "system": "http://snomed.info/sct",
              "code": "168749009",
              "display": "Mammography normal (finding)"
            }
          ]
        },
        "subject": {
          "reference": "Patient/Patient-6515",
          "display": "Kathryn House Weeks"
        },
        "context": {
          "reference": "Encounter/Encounter-1175",
          "display": "Wellness Visit"
        },
        "effectivePeriod": {
          "start": "2000-10-27T00:00:00-04:00",
          "end": "2000-10-27T00:00:00-04:00"
        },
        "performer": [
          {
            "reference": "Practitioner/Practitioner-2532",
            "display": "Chad Espinoza Potter MD"
          }
        ],
        "valueString": "NEGATIVE"
      },
      "request": {
        "method": "PUT",
        "url": "http://localhost:8080/cqf-ruler/baseDstu3Observation/Observation-248921"
      }
    },
    {
      "fullUrl": "http://localhost:8080/cqf-ruler/baseDstu3DiagnosticReport/DiagnosticReport-248922",
      "resource": {
        "resourceType": "DiagnosticReport",
        "id": "DiagnosticReport-248922",
        "status": "final",
        "code": {
          "coding": [
            {
              "system": "http://loinc.org",
              "code": "37774-7",
              "display": "Breast - right Mammogram"
            }
          ]
        },
        "subject": {
          "reference": "Patient/Patient-6515",
          "display": "Kathryn House Weeks"
        },
        "context": {
          "reference": "Encounter/Encounter-1175",
          "display": "Wellness Visit"
        },
        "effectivePeriod": {
          "start": "2000-10-27T00:00:00-04:00",
          "end": "2000-10-27T00:00:00-04:00"
        },
        "issued": "2000-10-27T00:00:00.000-04:00",
        "result": [
          {
            "reference": "Observation/Observation-248921",
            "display": "No_Cancer_Detected"
          }
        ]
      },
      "request": {
        "method": "PUT",
        "url": "http://localhost:8080/cqf-ruler/baseDstu3DiagnosticReport/DiagnosticReport-248922"
      }
    },
    {
      "fullUrl": "http://localhost:8080/cqf-ruler/baseDstu3Observation/Observation-248924",
      "resource": {
        "resourceType": "Observation",
        "id": "Observation-248924",
        "status": "final",
        "code": {
          "coding": [
            {
              "system": "http://loinc.org",
              "code": "8302-2",
              "display": "Height"
            }
          ]
        },
        "subject": {
          "reference": "Patient/Patient-6515",
          "display": "Kathryn House Weeks"
        },
        "context": {
          "reference": "Encounter/Encounter-1175",
          "display": "Wellness Visit"
        },
        "effectiveDateTime": "2000-10-27T00:00:00-04:00",
        "performer": [
          {
            "reference": "Practitioner/Practitioner-2532",
            "display": "Chad Espinoza Potter MD"
          }
        ],
        "valueQuantity": {
          "value": 163.3,
          "unit": "cm"
        }
      },
      "request": {
        "method": "PUT",
        "url": "http://localhost:8080/cqf-ruler/baseDstu3Observation/Observation-248924"
      }
    },
    {
      "fullUrl": "http://localhost:8080/cqf-ruler/baseDstu3Observation/Observation-248925",
      "resource": {
        "resourceType": "Observation",
        "id": "Observation-248925",
        "status": "final",
        "code": {
          "coding": [
            {
              "system": "http://loinc.org",
              "code": "29463-7",
              "display": "Weight"
            }
          ]
        },
        "subject": {
          "reference": "Patient/Patient-6515",
          "display": "Kathryn House Weeks"
        },
        "context": {
          "reference": "Encounter/Encounter-1175",
          "display": "Wellness Visit"
        },
        "effectiveDateTime": "2000-10-27T00:00:00-04:00",
        "performer": [
          {
            "reference": "Practitioner/Practitioner-2532",
            "display": "Chad Espinoza Potter MD"
          }
        ],
        "valueQuantity": {
          "value": 81.04220383744929,
          "unit": "kg"
        }
      },
      "request": {
        "method": "PUT",
        "url": "http://localhost:8080/cqf-ruler/baseDstu3Observation/Observation-248925"
      }
    },
    {
      "fullUrl": "http://localhost:8080/cqf-ruler/baseDstu3Observation/Observation-248926",
      "resource": {
        "resourceType": "Observation",
        "id": "Observation-248926",
        "status": "final",
        "code": {
          "coding": [
            {
              "system": "http://loinc.org",
              "code": "39156-5",
              "display": "BMI"
            }
          ]
        },
        "subject": {
          "reference": "Patient/Patient-6515",
          "display": "Kathryn House Weeks"
        },
        "context": {
          "reference": "Encounter/Encounter-1175",
          "display": "Wellness Visit"
        },
        "effectiveDateTime": "2000-10-27T00:00:00-04:00",
        "performer": [
          {
            "reference": "Practitioner/Practitioner-2532",
            "display": "Chad Espinoza Potter MD"
          }
        ],
        "valueQuantity": {
          "value": 30.390571918003673,
          "unit": "kg/m2"
        }
      },
      "request": {
        "method": "PUT",
        "url": "http://localhost:8080/cqf-ruler/baseDstu3Observation/Observation-248926"
      }
    },
    {
      "fullUrl": "http://localhost:8080/cqf-ruler/baseDstu3Observation/Observation-248927",
      "resource": {
        "resourceType": "Observation",
        "id": "Observation-248927",
        "status": "final",
        "code": {
          "coding": [
            {
              "system": "http://loinc.org",
              "code": "8310-5",
              "display": "Temperature"
            }
          ]
        },
        "subject": {
          "reference": "Patient/Patient-6515",
          "display": "Kathryn House Weeks"
        },
        "context": {
          "reference": "Encounter/Encounter-1175",
          "display": "Wellness Visit"
        },
        "effectiveDateTime": "2000-10-27T00:00:00-04:00",
        "performer": [
          {
            "reference": "Practitioner/Practitioner-2532",
            "display": "Chad Espinoza Potter MD"
          }
        ],
        "valueQuantity": {
          "value": 37.0,
          "unit": "C"
        }
      },
      "request": {
        "method": "PUT",
        "url": "http://localhost:8080/cqf-ruler/baseDstu3Observation/Observation-248927"
      }
    },
    {
      "fullUrl": "http://localhost:8080/cqf-ruler/baseDstu3Observation/Observation-248928",
      "resource": {
        "resourceType": "Observation",
        "id": "Observation-248928",
        "status": "final",
        "code": {
          "coding": [
            {
              "system": "http://loinc.org",
              "code": "8459-0",
              "display": "Systolic Blood Pressure"
            }
          ]
        },
        "subject": {
          "reference": "Patient/Patient-6515",
          "display": "Kathryn House Weeks"
        },
        "context": {
          "reference": "Encounter/Encounter-1175",
          "display": "Wellness Visit"
        },
        "effectiveDateTime": "2000-10-27T00:00:00-04:00",
        "performer": [
          {
            "reference": "Practitioner/Practitioner-2532",
            "display": "Chad Espinoza Potter MD"
          }
        ],
        "valueQuantity": {
          "value": 133.78404348959722,
          "unit": "mmHg"
        }
      },
      "request": {
        "method": "PUT",
        "url": "http://localhost:8080/cqf-ruler/baseDstu3Observation/Observation-248928"
      }
    },
    {
      "fullUrl": "http://localhost:8080/cqf-ruler/baseDstu3Observation/Observation-248929",
      "resource": {
        "resourceType": "Observation",
        "id": "Observation-248929",
        "status": "final",
        "code": {
          "coding": [
            {
              "system": "http://loinc.org",
              "code": "8453-3",
              "display": "Diastolic Blood Pressure"
            }
          ]
        },
        "subject": {
          "reference": "Patient/Patient-6515",
          "display": "Kathryn House Weeks"
        },
        "context": {
          "reference": "Encounter/Encounter-1175",
          "display": "Wellness Visit"
        },
        "effectiveDateTime": "2000-10-27T00:00:00-04:00",
        "performer": [
          {
            "reference": "Practitioner/Practitioner-2532",
            "display": "Chad Espinoza Potter MD"
          }
        ],
        "valueQuantity": {
          "value": 81.59738791440184,
          "unit": "mmHg"
        }
      },
      "request": {
        "method": "PUT",
        "url": "http://localhost:8080/cqf-ruler/baseDstu3Observation/Observation-248929"
      }
    },
    {
      "fullUrl": "http://localhost:8080/cqf-ruler/baseDstu3DiagnosticReport/DiagnosticReport-248923",
      "resource": {
        "resourceType": "DiagnosticReport",
        "id": "DiagnosticReport-248923",
        "status": "final",
        "code": {
          "coding": [
            {
              "system": "http://loinc.org",
              "code": "8716-3",
              "display": "Vital Signs Panel"
            }
          ]
        },
        "subject": {
          "reference": "Patient/Patient-6515",
          "display": "Kathryn House Weeks"
        },
        "context": {
          "reference": "Encounter/Encounter-1175",
          "display": "Wellness Visit"
        },
        "effectivePeriod": {
          "start": "2000-10-27T00:00:00-04:00",
          "end": "2000-10-27T00:00:00-04:00"
        },
        "issued": "2000-10-27T00:00:00.000-04:00",
        "result": [
          {
            "reference": "Observation/Observation-248924",
            "display": "Height"
          },
          {
            "reference": "Observation/Observation-248925",
            "display": "Weight"
          },
          {
            "reference": "Observation/Observation-248926",
            "display": "BMI"
          },
          {
            "reference": "Observation/Observation-248927",
            "display": "Temperature"
          },
          {
            "reference": "Observation/Observation-248928",
            "display": "Systolic Blood Pressure"
          },
          {
            "reference": "Observation/Observation-248929",
            "display": "Diastolic Blood Pressure"
          }
        ]
      },
      "request": {
        "method": "PUT",
        "url": "http://localhost:8080/cqf-ruler/baseDstu3DiagnosticReport/DiagnosticReport-248923"
      }
    }
  ]
}