{
  "resourceType": "Bundle",
  "id": "Carolyn-Hickman-Vega-6490-Encounter-189",
  "type": "transaction",
  "entry": [
    {
      "fullUrl": "http://localhost:8080/cqf-ruler/baseDstu3Encounter/Encounter-189",
      "resource": {
        "resourceType": "Encounter",
        "id": "Encounter-189",
        "status": "finished",
        "class": {
          "system": "http://hl7.org/fhir/encounter-class",
          "code": "outpatient",
          "display": "Inpatient"
        },
        "subject": {
          "reference": "Patient/Patient-6490",
          "display": "Carolyn Hickman Vega"
        },
        "participant": [
          {
            "period": {
              "start": "1988-08-12T00:00:00-04:00",
              "end": "1988-08-12T00:06:00-04:00"
            },
            "individual": {
              "reference": "Practitioner/Practitioner-2527",
              "display": "Lee Chris Mejia MD"
            }
          }
        ],
        "period": {
          "start": "1988-08-12T00:00:00-04:00",
          "end": "1988-08-12T00:06:00-04:00"
        },
        "location": [
          {
            "location": {
              "reference": "Location/Location-1106",
              "display": "Cranston Family Medical"
            }
          }
        ],
        "serviceProvider": {
          "reference": "Organization/Organization-1106",
          "display": "Cranston Family Medical"
        }
      },
      "request": {
        "method": "PUT",
        "url": "http://localhost:8080/cqf-ruler/baseDstu3Encounter/Encounter-189"
      }
    },
    {
      "fullUrl": "http://localhost:8080/cqf-ruler/baseDstu3Immunization/Immunization-223",
      "resource": {
        "resourceType": "Immunization",
        "id": "Immunization-223",
        "status": "completed",
        "notGiven": false,
        "vaccineCode": {
          "coding": [
            {
              "system": "http://hl7.org/fhir/sid/cvx",
              "code": "140",
              "display": "Influenza, seasonal, injectable, preservative free"
            }
          ]
        },
        "patient": {
          "reference": "Patient/Patient-6490",
          "display": "Carolyn Hickman Vega"
        },
        "date": "1988-08-12T00:00:00-04:00",
        "primarySource": true,
        "location": {
          "reference": "Location/Location-1106",
          "display": "Cranston Family Medical"
        },
        "practitioner": [
          {
            "actor": {
              "reference": "Practitioner/Practitioner-2527",
              "display": "Lee Chris Mejia MD"
            }
          }
        ]
      },
      "request": {
        "method": "PUT",
        "url": "http://localhost:8080/cqf-ruler/baseDstu3Immunization/Immunization-223"
      }
    },
    {
      "fullUrl": "http://localhost:8080/cqf-ruler/baseDstu3Procedure/Procedure-10430",
      "resource": {
        "resourceType": "Procedure",
        "id": "Procedure-10430",
        "status": "completed",
        "code": {
          "coding": [
            {
              "system": "http://www.ama-assn.org/go/cpt",
              "code": "77067",
              "display": "Screening mammography, bilateral (2-view study of each breast), including computer-aided detection (CAD) when performed"
            }
          ]
        },
        "subject": {
          "reference": "Patient/Patient-6490",
          "display": "Carolyn Hickman Vega"
        },
        "context": {
          "reference": "Encounter/Encounter-189",
          "display": "Wellness Visit"
        },
        "performedPeriod": {
          "start": "1988-08-12T00:00:00-04:00",
          "end": "1988-08-12T00:00:00-04:00"
        },
        "performer": [
          {
            "actor": {
              "reference": "Practitioner/Practitioner-2527",
              "display": "Lee Chris Mejia MD"
            }
          }
        ],
        "location": {
          "reference": "Location/Location-1106",
          "display": "Cranston Family Medical"
        }
      },
      "request": {
        "method": "PUT",
        "url": "http://localhost:8080/cqf-ruler/baseDstu3Procedure/Procedure-10430"
      }
    },
    {
      "fullUrl": "http://localhost:8080/cqf-ruler/baseDstu3Observation/Observation-10431",
      "resource": {
        "resourceType": "Observation",
        "id": "Observation-10431",
        "status": "final",
        "code": {
          "coding": [
            {
              "system": "http://snomed.info/sct",
              "code": "168749009",
              "display": "Mammography normal (finding)"
            }
          ]
        },
        "subject": {
          "reference": "Patient/Patient-6490",
          "display": "Carolyn Hickman Vega"
        },
        "context": {
          "reference": "Encounter/Encounter-189",
          "display": "Wellness Visit"
        },
        "effectivePeriod": {
          "start": "1988-08-12T00:00:00-04:00",
          "end": "1988-08-12T00:00:00-04:00"
        },
        "performer": [
          {
            "reference": "Practitioner/Practitioner-2527",
            "display": "Lee Chris Mejia MD"
          }
        ],
        "valueString": "NEGATIVE"
      },
      "request": {
        "method": "PUT",
        "url": "http://localhost:8080/cqf-ruler/baseDstu3Observation/Observation-10431"
      }
    },
    {
      "fullUrl": "http://localhost:8080/cqf-ruler/baseDstu3DiagnosticReport/DiagnosticReport-10432",
      "resource": {
        "resourceType": "DiagnosticReport",
        "id": "DiagnosticReport-10432",
        "status": "final",
        "code": {
          "coding": [
            {
              "system": "http://loinc.org",
              "code": "39154-0",
              "display": "Breast - bilateral FFD mammogram diagnostic"
            }
          ]
        },
        "subject": {
          "reference": "Patient/Patient-6490",
          "display": "Carolyn Hickman Vega"
        },
        "context": {
          "reference": "Encounter/Encounter-189",
          "display": "Wellness Visit"
        },
        "effectivePeriod": {
          "start": "1988-08-12T00:00:00-04:00",
          "end": "1988-08-12T00:00:00-04:00"
        },
        "issued": "1988-08-12T00:00:00.000-04:00",
        "result": [
          {
            "reference": "Observation/Observation-10431",
            "display": "No_Cancer_Detected"
          }
        ]
      },
      "request": {
        "method": "PUT",
        "url": "http://localhost:8080/cqf-ruler/baseDstu3DiagnosticReport/DiagnosticReport-10432"
      }
    },
    {
      "fullUrl": "http://localhost:8080/cqf-ruler/baseDstu3Procedure/Procedure-10433",
      "resource": {
        "resourceType": "Procedure",
        "id": "Procedure-10433",
        "status": "completed",
        "code": {
          "coding": [
            {
              "system": "http://www.ama-assn.org/go/cpt",
              "code": "87622",
              "display": "Infectious agent detection by nucleic acid (DNA or RNA); papillomavirus, human, quantification"
            }
          ]
        },
        "subject": {
          "reference": "Patient/Patient-6490",
          "display": "Carolyn Hickman Vega"
        },
        "context": {
          "reference": "Encounter/Encounter-189",
          "display": "Wellness Visit"
        },
        "performedPeriod": {
          "start": "1988-08-12T00:00:00-04:00",
          "end": "1988-08-12T00:00:00-04:00"
        },
        "performer": [
          {
            "actor": {
              "reference": "Practitioner/Practitioner-2527",
              "display": "Lee Chris Mejia MD"
            }
          }
        ],
        "location": {
          "reference": "Location/Location-1106",
          "display": "Cranston Family Medical"
        }
      },
      "request": {
        "method": "PUT",
        "url": "http://localhost:8080/cqf-ruler/baseDstu3Procedure/Procedure-10433"
      }
    },
    {
      "fullUrl": "http://localhost:8080/cqf-ruler/baseDstu3Observation/Observation-10434",
      "resource": {
        "resourceType": "Observation",
        "id": "Observation-10434",
        "status": "final",
        "code": {
          "coding": [
            {
              "system": "http://snomed.info/sct",
              "code": "289829007",
              "display": "Normal uterine cervix (finding)"
            }
          ]
        },
        "subject": {
          "reference": "Patient/Patient-6490",
          "display": "Carolyn Hickman Vega"
        },
        "context": {
          "reference": "Encounter/Encounter-189",
          "display": "Wellness Visit"
        },
        "effectivePeriod": {
          "start": "1988-08-12T00:00:00-04:00",
          "end": "1988-08-12T00:00:00-04:00"
        },
        "performer": [
          {
            "reference": "Practitioner/Practitioner-2527",
            "display": "Lee Chris Mejia MD"
          }
        ],
        "valueString": "NEGATIVE"
      },
      "request": {
        "method": "PUT",
        "url": "http://localhost:8080/cqf-ruler/baseDstu3Observation/Observation-10434"
      }
    },
    {
      "fullUrl": "http://localhost:8080/cqf-ruler/baseDstu3DiagnosticReport/DiagnosticReport-10435",
      "resource": {
        "resourceType": "DiagnosticReport",
        "id": "DiagnosticReport-10435",
        "status": "final",
        "code": {
          "coding": [
            {
              "system": "http://loinc.org",
              "code": "10524-7",
              "display": "Microscopic observation [Identifier] in Cervix by Cyto stain"
            }
          ]
        },
        "subject": {
          "reference": "Patient/Patient-6490",
          "display": "Carolyn Hickman Vega"
        },
        "context": {
          "reference": "Encounter/Encounter-189",
          "display": "Wellness Visit"
        },
        "effectivePeriod": {
          "start": "1988-08-12T00:00:00-04:00",
          "end": "1988-08-12T00:00:00-04:00"
        },
        "issued": "1988-08-12T00:00:00.000-04:00",
        "result": [
          {
            "reference": "Observation/Observation-10434",
            "display": "No_Cancer_Detected"
          }
        ]
      },
      "request": {
        "method": "PUT",
        "url": "http://localhost:8080/cqf-ruler/baseDstu3DiagnosticReport/DiagnosticReport-10435"
      }
    },
    {
      "fullUrl": "http://localhost:8080/cqf-ruler/baseDstu3Observation/Observation-10437",
      "resource": {
        "resourceType": "Observation",
        "id": "Observation-10437",
        "status": "final",
        "code": {
          "coding": [
            {
              "system": "http://loinc.org",
              "code": "8302-2",
              "display": "Height"
            }
          ]
        },
        "subject": {
          "reference": "Patient/Patient-6490",
          "display": "Carolyn Hickman Vega"
        },
        "context": {
          "reference": "Encounter/Encounter-189",
          "display": "Wellness Visit"
        },
        "effectiveDateTime": "1988-08-12T00:00:00-04:00",
        "performer": [
          {
            "reference": "Practitioner/Practitioner-2527",
            "display": "Lee Chris Mejia MD"
          }
        ],
        "valueQuantity": {
          "value": 159.0,
          "unit": "cm"
        }
      },
      "request": {
        "method": "PUT",
        "url": "http://localhost:8080/cqf-ruler/baseDstu3Observation/Observation-10437"
      }
    },
    {
      "fullUrl": "http://localhost:8080/cqf-ruler/baseDstu3Observation/Observation-10438",
      "resource": {
        "resourceType": "Observation",
        "id": "Observation-10438",
        "status": "final",
        "code": {
          "coding": [
            {
              "system": "http://loinc.org",
              "code": "29463-7",
              "display": "Weight"
            }
          ]
        },
        "subject": {
          "reference": "Patient/Patient-6490",
          "display": "Carolyn Hickman Vega"
        },
        "context": {
          "reference": "Encounter/Encounter-189",
          "display": "Wellness Visit"
        },
        "effectiveDateTime": "1988-08-12T00:00:00-04:00",
        "performer": [
          {
            "reference": "Practitioner/Practitioner-2527",
            "display": "Lee Chris Mejia MD"
          }
        ],
        "valueQuantity": {
          "value": 50.37000496610066,
          "unit": "kg"
        }
      },
      "request": {
        "method": "PUT",
        "url": "http://localhost:8080/cqf-ruler/baseDstu3Observation/Observation-10438"
      }
    },
    {
      "fullUrl": "http://localhost:8080/cqf-ruler/baseDstu3Observation/Observation-10439",
      "resource": {
        "resourceType": "Observation",
        "id": "Observation-10439",
        "status": "final",
        "code": {
          "coding": [
            {
              "system": "http://loinc.org",
              "code": "39156-5",
              "display": "BMI"
            }
          ]
        },
        "subject": {
          "reference": "Patient/Patient-6490",
          "display": "Carolyn Hickman Vega"
        },
        "context": {
          "reference": "Encounter/Encounter-189",
          "display": "Wellness Visit"
        },
        "effectiveDateTime": "1988-08-12T00:00:00-04:00",
        "performer": [
          {
            "reference": "Practitioner/Practitioner-2527",
            "display": "Lee Chris Mejia MD"
          }
        ],
        "valueQuantity": {
          "value": 19.92405560147963,
          "unit": "kg/m2"
        }
      },
      "request": {
        "method": "PUT",
        "url": "http://localhost:8080/cqf-ruler/baseDstu3Observation/Observation-10439"
      }
    },
    {
      "fullUrl": "http://localhost:8080/cqf-ruler/baseDstu3Observation/Observation-10440",
      "resource": {
        "resourceType": "Observation",
        "id": "Observation-10440",
        "status": "final",
        "code": {
          "coding": [
            {
              "system": "http://loinc.org",
              "code": "8310-5",
              "display": "Temperature"
            }
          ]
        },
        "subject": {
          "reference": "Patient/Patient-6490",
          "display": "Carolyn Hickman Vega"
        },
        "context": {
          "reference": "Encounter/Encounter-189",
          "display": "Wellness Visit"
        },
        "effectiveDateTime": "1988-08-12T00:00:00-04:00",
        "performer": [
          {
            "reference": "Practitioner/Practitioner-2527",
            "display": "Lee Chris Mejia MD"
          }
        ],
        "valueQuantity": {
          "value": 37.0,
          "unit": "C"
        }
      },
      "request": {
        "method": "PUT",
        "url": "http://localhost:8080/cqf-ruler/baseDstu3Observation/Observation-10440"
      }
    },
    {
      "fullUrl": "http://localhost:8080/cqf-ruler/baseDstu3Observation/Observation-10441",
      "resource": {
        "resourceType": "Observation",
        "id": "Observation-10441",
        "status": "final",
        "code": {
          "coding": [
            {
              "system": "http://loinc.org",
              "code": "8459-0",
              "display": "Systolic Blood Pressure"
            }
          ]
        },
        "subject": {
          "reference": "Patient/Patient-6490",
          "display": "Carolyn Hickman Vega"
        },
        "context": {
          "reference": "Encounter/Encounter-189",
          "display": "Wellness Visit"
        },
        "effectiveDateTime": "1988-08-12T00:00:00-04:00",
        "performer": [
          {
            "reference": "Practitioner/Practitioner-2527",
            "display": "Lee Chris Mejia MD"
          }
        ],
        "valueQuantity": {
          "value": 125.4418305459405,
          "unit": "mmHg"
        }
      },
      "request": {
        "method": "PUT",
        "url": "http://localhost:8080/cqf-ruler/baseDstu3Observation/Observation-10441"
      }
    },
    {
      "fullUrl": "http://localhost:8080/cqf-ruler/baseDstu3Observation/Observation-10442",
      "resource": {
        "resourceType": "Observation",
        "id": "Observation-10442",
        "status": "final",
        "code": {
          "coding": [
            {
              "system": "http://loinc.org",
              "code": "8453-3",
              "display": "Diastolic Blood Pressure"
            }
          ]
        },
        "subject": {
          "reference": "Patient/Patient-6490",
          "display": "Carolyn Hickman Vega"
        },
        "context": {
          "reference": "Encounter/Encounter-189",
          "display": "Wellness Visit"
        },
        "effectiveDateTime": "1988-08-12T00:00:00-04:00",
        "performer": [
          {
            "reference": "Practitioner/Practitioner-2527",
            "display": "Lee Chris Mejia MD"
          }
        ],
        "valueQuantity": {
          "value": 84.09219732601125,
          "unit": "mmHg"
        }
      },
      "request": {
        "method": "PUT",
        "url": "http://localhost:8080/cqf-ruler/baseDstu3Observation/Observation-10442"
      }
    },
    {
      "fullUrl": "http://localhost:8080/cqf-ruler/baseDstu3DiagnosticReport/DiagnosticReport-10436",
      "resource": {
        "resourceType": "DiagnosticReport",
        "id": "DiagnosticReport-10436",
        "status": "final",
        "code": {
          "coding": [
            {
              "system": "http://loinc.org",
              "code": "8716-3",
              "display": "Vital Signs Panel"
            }
          ]
        },
        "subject": {
          "reference": "Patient/Patient-6490",
          "display": "Carolyn Hickman Vega"
        },
        "context": {
          "reference": "Encounter/Encounter-189",
          "display": "Wellness Visit"
        },
        "effectivePeriod": {
          "start": "1988-08-12T00:00:00-04:00",
          "end": "1988-08-12T00:00:00-04:00"
        },
        "issued": "1988-08-12T00:00:00.000-04:00",
        "result": [
          {
            "reference": "Observation/Observation-10437",
            "display": "Height"
          },
          {
            "reference": "Observation/Observation-10438",
            "display": "Weight"
          },
          {
            "reference": "Observation/Observation-10439",
            "display": "BMI"
          },
          {
            "reference": "Observation/Observation-10440",
            "display": "Temperature"
          },
          {
            "reference": "Observation/Observation-10441",
            "display": "Systolic Blood Pressure"
          },
          {
            "reference": "Observation/Observation-10442",
            "display": "Diastolic Blood Pressure"
          }
        ]
      },
      "request": {
        "method": "PUT",
        "url": "http://localhost:8080/cqf-ruler/baseDstu3DiagnosticReport/DiagnosticReport-10436"
      }
    },
    {
      "fullUrl": "http://localhost:8080/cqf-ruler/baseDstu3Procedure/Procedure-11621",
      "resource": {
        "resourceType": "Procedure",
        "id": "Procedure-11621",
        "status": "completed",
        "code": {
          "coding": [
            {
              "system": "http://www.ama-assn.org/go/cpt",
              "code": "82270",
              "display": "Blood, occult, by peroxidase activity (eg, guaiac), qualitative; feces, consecutive collected specimens with single determination, for colorectal neoplasm screening (ie, patient was provided 3 cards or single triple card for consecutive collection)"
            }
          ]
        },
        "subject": {
          "reference": "Patient/Patient-6490",
          "display": "Carolyn Hickman Vega"
        },
        "context": {
          "reference": "Encounter/Encounter-189",
          "display": "Wellness Visit"
        },
        "performedPeriod": {
          "start": "1988-08-12T00:06:00-04:00",
          "end": "1988-08-12T00:06:00-04:00"
        },
        "performer": [
          {
            "actor": {
              "reference": "Practitioner/Practitioner-2527",
              "display": "Lee Chris Mejia MD"
            }
          }
        ],
        "location": {
          "reference": "Location/Location-1106",
          "display": "Cranston Family Medical"
        }
      },
      "request": {
        "method": "PUT",
        "url": "http://localhost:8080/cqf-ruler/baseDstu3Procedure/Procedure-11621"
      }
    },
    {
      "fullUrl": "http://localhost:8080/cqf-ruler/baseDstu3Observation/Observation-11622",
      "resource": {
        "resourceType": "Observation",
        "id": "Observation-11622",
        "status": "final",
        "code": {
          "coding": [
            {
              "system": "http://www.ama-assn.org/go/cpt",
              "code": "82270",
              "display": "Blood, occult, by peroxidase activity (eg, guaiac), qualitative; feces, consecutive collected specimens with single determination, for colorectal neoplasm screening (ie, patient was provided 3 cards or single triple card for consecutive collection)"
            }
          ]
        },
        "subject": {
          "reference": "Patient/Patient-6490",
          "display": "Carolyn Hickman Vega"
        },
        "context": {
          "reference": "Encounter/Encounter-189",
          "display": "Wellness Visit"
        },
        "effectivePeriod": {
          "start": "1988-08-12T00:06:00-04:00",
          "end": "1988-08-12T00:06:00-04:00"
        },
        "performer": [
          {
            "reference": "Practitioner/Practitioner-2527",
            "display": "Lee Chris Mejia MD"
          }
        ],
        "valueString": "NEGATIVE"
      },
      "request": {
        "method": "PUT",
        "url": "http://localhost:8080/cqf-ruler/baseDstu3Observation/Observation-11622"
      }
    }
  ]
}