{
  "resourceType": "Bundle",
  "id": "Rick-Troy-Hanson-6549-Encounter-1445",
  "type": "transaction",
  "entry": [
    {
      "fullUrl": "http://localhost:8080/cqf-ruler/baseDstu3/Encounter/Encounter-1445",
      "resource": {
        "resourceType": "Encounter",
        "id": "Encounter-1445",
        "meta": {
          "profile": [
            "http://hl7.org/fhir/us/hedis/StructureDefinition/hedis-encounter"
          ]
        },
        "status": "finished",
        "class": {
          "system": "http://hl7.org/fhir/encounter-class",
          "code": "outpatient",
          "display": "Outpatient"
        },
        "type": [
          {
            "coding": [
              {
                "system": "http://snomed.info/sct",
                "code": "185349003",
                "display": "Wellness Visit"
              }
            ]
          }
        ],
        "subject": {
          "reference": "Patient/Patient-6549",
          "display": "Rick Troy Hanson"
        },
        "participant": [
          {
            "period": {
              "start": "2004-08-20T00:00:00-04:00",
              "end": "2004-08-20T00:00:00-04:00"
            },
            "individual": {
              "reference": "Practitioner/Practitioner-2526",
              "display": "James Woodward Wilkins MD"
            }
          }
        ],
        "period": {
          "start": "2004-08-20T00:00:00-04:00",
          "end": "2004-08-20T00:00:00-04:00"
        },
        "location": [
          {
            "location": {
              "reference": "Location/Location-1105",
              "display": "Bayside Medical Group"
            }
          }
        ],
        "serviceProvider": {
          "reference": "Organization/Organization-1105",
          "display": "Bayside Medical Group"
        }
      },
      "request": {
        "method": "PUT",
        "url": "http://localhost:8080/cqf-ruler/baseDstu3/Encounter/Encounter-1445"
      }
    },
    {
      "fullUrl": "http://localhost:8080/cqf-ruler/baseDstu3/Immunization/Immunization-296996",
      "resource": {
        "resourceType": "Immunization",
        "id": "Immunization-296996",
        "status": "completed",
        "notGiven": false,
        "vaccineCode": {
          "coding": [
            {
              "system": "http://hl7.org/fhir/sid/cvx",
              "code": "140",
              "display": "Influenza, seasonal, injectable, preservative free"
            }
          ]
        },
        "patient": {
          "reference": "Patient/Patient-6549",
          "display": "Rick Troy Hanson"
        },
        "date": "2004-08-20T00:00:00-04:00",
        "primarySource": true,
        "location": {
          "reference": "Location/Location-1105",
          "display": "Bayside Medical Group"
        },
        "practitioner": [
          {
            "actor": {
              "reference": "Practitioner/Practitioner-2526",
              "display": "James Woodward Wilkins MD"
            }
          }
        ]
      },
      "request": {
        "method": "PUT",
        "url": "http://localhost:8080/cqf-ruler/baseDstu3/Immunization/Immunization-296996"
      }
    },
    {
      "fullUrl": "http://localhost:8080/cqf-ruler/baseDstu3/Procedure/Procedure-342226",
      "resource": {
        "resourceType": "Procedure",
        "id": "Procedure-342226",
        "meta": {
          "profile": [
            "http://hl7.org/fhir/us/hedis/StructureDefinition/hedis-procedure"
          ]
        },
        "status": "completed",
        "code": {
          "coding": [
            {
              "system": "http://snomed.info/sct",
              "code": "713107002",
              "display": "Screening for alcohol abuse (procedure)"
            }
          ]
        },
        "subject": {
          "reference": "Patient/Patient-6549",
          "display": "Rick Troy Hanson"
        },
        "context": {
          "reference": "Encounter/Encounter-1445",
          "display": "Wellness Visit"
        },
        "performedPeriod": {
          "start": "2004-08-20T00:00:00-04:00",
          "end": "2004-08-20T00:00:00-04:00"
        },
        "performer": [
          {
            "actor": {
              "reference": "Practitioner/Practitioner-2526",
              "display": "James Woodward Wilkins MD"
            }
          }
        ],
        "location": {
          "reference": "Location/Location-1105",
          "display": "Bayside Medical Group"
        }
      },
      "request": {
        "method": "PUT",
        "url": "http://localhost:8080/cqf-ruler/baseDstu3/Procedure/Procedure-342226"
      }
    },
    {
      "fullUrl": "http://localhost:8080/cqf-ruler/baseDstu3/Observation/Observation-342227",
      "resource": {
        "resourceType": "Observation",
        "id": "Observation-342227",
        "meta": {
          "profile": [
            "http://hl7.org/fhir/us/hedis/StructureDefinition/hedis-observation"
          ]
        },
        "status": "final",
        "code": {
          "coding": [
            {
              "system": "http://snomed.info/sct",
              "code": "704197006",
              "display": "Admits alcohol use (finding) "
            }
          ]
        },
        "subject": {
          "reference": "Patient/Patient-6549",
          "display": "Rick Troy Hanson"
        },
        "context": {
          "reference": "Encounter/Encounter-1445",
          "display": "Wellness Visit"
        },
        "effectiveDateTime": "2004-08-20T00:00:00-04:00",
        "performer": [
          {
            "reference": "Practitioner/Practitioner-2526",
            "display": "James Woodward Wilkins MD"
          }
        ],
        "valueQuantity": {
          "value": 2.0,
          "unit": "drinks/day"
        }
      },
      "request": {
        "method": "PUT",
        "url": "http://localhost:8080/cqf-ruler/baseDstu3/Observation/Observation-342227"
      }
    },
    {
      "fullUrl": "http://localhost:8080/cqf-ruler/baseDstu3/Observation/Observation-342228",
      "resource": {
        "resourceType": "Observation",
        "id": "Observation-342228",
        "meta": {
          "profile": [
            "http://hl7.org/fhir/us/hedis/StructureDefinition/hedis-observation"
          ]
        },
        "status": "final",
        "code": {
          "coding": [
            {
              "system": "http://loinc.org",
              "code": "8480-6",
              "display": "Systolic blood pressure"
            }
          ]
        },
        "subject": {
          "reference": "Patient/Patient-6549",
          "display": "Rick Troy Hanson"
        },
        "context": {
          "reference": "Encounter/Encounter-1445",
          "display": "Wellness Visit"
        },
        "effectiveDateTime": "2004-08-20T00:00:00-04:00",
        "performer": [
          {
            "reference": "Practitioner/Practitioner-2526",
            "display": "James Woodward Wilkins MD"
          }
        ],
        "valueQuantity": {
          "value": 124.06564855115494,
          "unit": "mmHg"
        }
      },
      "request": {
        "method": "PUT",
        "url": "http://localhost:8080/cqf-ruler/baseDstu3/Observation/Observation-342228"
      }
    },
    {
      "fullUrl": "http://localhost:8080/cqf-ruler/baseDstu3/Observation/Observation-342229",
      "resource": {
        "resourceType": "Observation",
        "id": "Observation-342229",
        "meta": {
          "profile": [
            "http://hl7.org/fhir/us/hedis/StructureDefinition/hedis-observation"
          ]
        },
        "status": "final",
        "code": {
          "coding": [
            {
              "system": "http://loinc.org",
              "code": "8462-4",
              "display": "Diastolic blood pressure"
            }
          ]
        },
        "subject": {
          "reference": "Patient/Patient-6549",
          "display": "Rick Troy Hanson"
        },
        "context": {
          "reference": "Encounter/Encounter-1445",
          "display": "Wellness Visit"
        },
        "effectiveDateTime": "2004-08-20T00:00:00-04:00",
        "performer": [
          {
            "reference": "Practitioner/Practitioner-2526",
            "display": "James Woodward Wilkins MD"
          }
        ],
        "valueQuantity": {
          "value": 87.98293577120067,
          "unit": "mmHg"
        }
      },
      "request": {
        "method": "PUT",
        "url": "http://localhost:8080/cqf-ruler/baseDstu3/Observation/Observation-342229"
      }
    },
    {
      "fullUrl": "http://localhost:8080/cqf-ruler/baseDstu3/Procedure/Procedure-342230",
      "resource": {
        "resourceType": "Procedure",
        "id": "Procedure-342230",
        "meta": {
          "profile": [
            "http://hl7.org/fhir/us/hedis/StructureDefinition/hedis-procedure"
          ]
        },
        "status": "completed",
        "code": {
          "coding": [
            {
              "system": "http://www.ama-assn.org/go/cpt",
              "code": "82274",
              "display": "Blood, occult, by fecal hemoglobin determination by immunoassay, qualitative, feces, 1-3 simultaneous determinations"
            }
          ]
        },
        "subject": {
          "reference": "Patient/Patient-6549",
          "display": "Rick Troy Hanson"
        },
        "context": {
          "reference": "Encounter/Encounter-1445",
          "display": "Wellness Visit"
        },
        "performedPeriod": {
          "start": "2004-08-20T00:00:00-04:00",
          "end": "2004-08-20T00:00:00-04:00"
        },
        "performer": [
          {
            "actor": {
              "reference": "Practitioner/Practitioner-2526",
              "display": "James Woodward Wilkins MD"
            }
          }
        ],
        "location": {
          "reference": "Location/Location-1105",
          "display": "Bayside Medical Group"
        }
      },
      "request": {
        "method": "PUT",
        "url": "http://localhost:8080/cqf-ruler/baseDstu3/Procedure/Procedure-342230"
      }
    },
    {
      "fullUrl": "http://localhost:8080/cqf-ruler/baseDstu3/Observation/Observation-342231",
      "resource": {
        "resourceType": "Observation",
        "id": "Observation-342231",
        "meta": {
          "profile": [
            "http://hl7.org/fhir/us/hedis/StructureDefinition/hedis-observation"
          ]
        },
        "status": "final",
        "code": {
          "coding": [
            {
              "system": "http://www.ama-assn.org/go/cpt",
              "code": "82270",
              "display": "Blood, occult, by peroxidase activity (eg, guaiac), qualitative; feces, consecutive collected specimens with single determination, for colorectal neoplasm screening (ie, patient was provided 3 cards or single triple card for consecutive collection)"
            }
          ]
        },
        "subject": {
          "reference": "Patient/Patient-6549",
          "display": "Rick Troy Hanson"
        },
        "context": {
          "reference": "Encounter/Encounter-1445",
          "display": "Wellness Visit"
        },
        "effectiveDateTime": "2004-08-20T00:00:00-04:00",
        "performer": [
          {
            "reference": "Practitioner/Practitioner-2526",
            "display": "James Woodward Wilkins MD"
          }
        ],
        "valueString": "NEGATIVE"
      },
      "request": {
        "method": "PUT",
        "url": "http://localhost:8080/cqf-ruler/baseDstu3/Observation/Observation-342231"
      }
    },
    {
      "fullUrl": "http://localhost:8080/cqf-ruler/baseDstu3/Observation/Observation-342232",
      "resource": {
        "resourceType": "Observation",
        "id": "Observation-342232",
        "meta": {
          "profile": [
            "http://hl7.org/fhir/us/hedis/StructureDefinition/hedis-observation"
          ]
        },
        "status": "final",
        "code": {
          "coding": [
            {
              "system": "http://loinc.org",
              "code": "8302-2",
              "display": "Body Height"
            }
          ]
        },
        "subject": {
          "reference": "Patient/Patient-6549",
          "display": "Rick Troy Hanson"
        },
        "context": {
          "reference": "Encounter/Encounter-1445",
          "display": "Wellness Visit"
        },
        "effectiveDateTime": "2004-08-20T00:00:00-04:00",
        "performer": [
          {
            "reference": "Practitioner/Practitioner-2526",
            "display": "James Woodward Wilkins MD"
          }
        ],
        "valueQuantity": {
          "value": 176.8,
          "unit": "cm"
        }
      },
      "request": {
        "method": "PUT",
        "url": "http://localhost:8080/cqf-ruler/baseDstu3/Observation/Observation-342232"
      }
    },
    {
      "fullUrl": "http://localhost:8080/cqf-ruler/baseDstu3/Observation/Observation-342233",
      "resource": {
        "resourceType": "Observation",
        "id": "Observation-342233",
        "meta": {
          "profile": [
            "http://hl7.org/fhir/us/hedis/StructureDefinition/hedis-observation"
          ]
        },
        "status": "final",
        "code": {
          "coding": [
            {
              "system": "http://loinc.org",
              "code": "29463-7",
              "display": "Body Weight"
            }
          ]
        },
        "subject": {
          "reference": "Patient/Patient-6549",
          "display": "Rick Troy Hanson"
        },
        "context": {
          "reference": "Encounter/Encounter-1445",
          "display": "Wellness Visit"
        },
        "effectiveDateTime": "2004-08-20T00:00:00-04:00",
        "performer": [
          {
            "reference": "Practitioner/Practitioner-2526",
            "display": "James Woodward Wilkins MD"
          }
        ],
        "valueQuantity": {
          "value": 94.78631443561007,
          "unit": "kg"
        }
      },
      "request": {
        "method": "PUT",
        "url": "http://localhost:8080/cqf-ruler/baseDstu3/Observation/Observation-342233"
      }
    },
    {
      "fullUrl": "http://localhost:8080/cqf-ruler/baseDstu3/Observation/Observation-342234",
      "resource": {
        "resourceType": "Observation",
        "id": "Observation-342234",
        "meta": {
          "profile": [
            "http://hl7.org/fhir/us/hedis/StructureDefinition/hedis-observation"
          ]
        },
        "status": "final",
        "code": {
          "coding": [
            {
              "system": "http://loinc.org",
              "code": "39156-5",
              "display": "Body Mass Index"
            }
          ]
        },
        "subject": {
          "reference": "Patient/Patient-6549",
          "display": "Rick Troy Hanson"
        },
        "context": {
          "reference": "Encounter/Encounter-1445",
          "display": "Wellness Visit"
        },
        "effectiveDateTime": "2004-08-20T00:00:00-04:00",
        "performer": [
          {
            "reference": "Practitioner/Practitioner-2526",
            "display": "James Woodward Wilkins MD"
          }
        ],
        "valueQuantity": {
          "value": 30.323624885985282,
          "unit": "kg/m2"
        }
      },
      "request": {
        "method": "PUT",
        "url": "http://localhost:8080/cqf-ruler/baseDstu3/Observation/Observation-342234"
      }
    },
    {
      "fullUrl": "http://localhost:8080/cqf-ruler/baseDstu3/Observation/Observation-342237",
      "resource": {
        "resourceType": "Observation",
        "id": "Observation-342237",
        "meta": {
          "profile": [
            "http://hl7.org/fhir/us/hedis/StructureDefinition/hedis-observation"
          ]
        },
        "status": "final",
        "code": {
          "coding": [
            {
              "system": "http://loinc.org",
              "code": "55284-4",
              "display": "Blood Pressure"
            }
          ]
        },
        "subject": {
          "reference": "Patient/Patient-6549",
          "display": "Rick Troy Hanson"
        },
        "context": {
          "reference": "Encounter/Encounter-1445",
          "display": "Wellness Visit"
        },
        "effectiveDateTime": "2004-08-20T00:00:00-04:00",
        "valueQuantity": {
          "value": 87.98293577120067,
          "unit": "mmHg"
        },
        "component": [
          {
            "code": {
              "coding": [
                {
                  "system": "http://loinc.org",
                  "code": "8480-6",
                  "display": "Systolic Blood Pressure"
                }
              ]
            }
          },
          {
            "code": {
              "coding": [
                {
                  "system": "http://loinc.org",
                  "code": "8462-4",
                  "display": "Diastolic Blood Pressure"
                }
              ]
            }
          }
        ]
      },
      "request": {
        "method": "PUT",
        "url": "http://localhost:8080/cqf-ruler/baseDstu3/Observation/Observation-342237"
      }
    },
    {
      "fullUrl": "http://localhost:8080/cqf-ruler/baseDstu3/Observation/Observation-342238",
      "resource": {
        "resourceType": "Observation",
        "id": "Observation-342238",
        "meta": {
          "profile": [
            "http://hl7.org/fhir/us/hedis/StructureDefinition/hedis-observation"
          ]
        },
        "status": "final",
        "code": {
          "coding": [
            {
              "system": "http://loinc.org",
              "code": "4548-4",
              "display": "Hemoglobin A1c/Hemoglobin.total in Blood"
            }
          ]
        },
        "subject": {
          "reference": "Patient/Patient-6549",
          "display": "Rick Troy Hanson"
        },
        "context": {
          "reference": "Encounter/Encounter-1445",
          "display": "Wellness Visit"
        },
        "effectiveDateTime": "2004-08-20T00:00:00-04:00",
        "performer": [
          {
            "reference": "Practitioner/Practitioner-2526",
            "display": "James Woodward Wilkins MD"
          }
        ],
        "valueQuantity": {
          "value": -0.00006200374352335752,
          "unit": "%"
        }
      },
      "request": {
        "method": "PUT",
        "url": "http://localhost:8080/cqf-ruler/baseDstu3/Observation/Observation-342238"
      }
    },
    {
      "fullUrl": "http://localhost:8080/cqf-ruler/baseDstu3/Observation/Observation-342239",
      "resource": {
        "resourceType": "Observation",
        "id": "Observation-342239",
        "meta": {
          "profile": [
            "http://hl7.org/fhir/us/hedis/StructureDefinition/hedis-observation"
          ]
        },
        "status": "final",
        "code": {
          "coding": [
            {
              "system": "http://loinc.org",
              "code": "2339-0",
              "display": "Glucose"
            }
          ]
        },
        "subject": {
          "reference": "Patient/Patient-6549",
          "display": "Rick Troy Hanson"
        },
        "context": {
          "reference": "Encounter/Encounter-1445",
          "display": "Wellness Visit"
        },
        "effectiveDateTime": "2004-08-20T00:00:00-04:00",
        "performer": [
          {
            "reference": "Practitioner/Practitioner-2526",
            "display": "James Woodward Wilkins MD"
          }
        ],
        "valueQuantity": {
          "value": 0.00010028691039208886,
          "unit": "mg/dL"
        }
      },
      "request": {
        "method": "PUT",
        "url": "http://localhost:8080/cqf-ruler/baseDstu3/Observation/Observation-342239"
      }
    },
    {
      "fullUrl": "http://localhost:8080/cqf-ruler/baseDstu3/Observation/Observation-342240",
      "resource": {
        "resourceType": "Observation",
        "id": "Observation-342240",
        "meta": {
          "profile": [
            "http://hl7.org/fhir/us/hedis/StructureDefinition/hedis-observation"
          ]
        },
        "status": "final",
        "code": {
          "coding": [
            {
              "system": "http://loinc.org",
              "code": "6299-2",
              "display": "Urea Nitrogen"
            }
          ]
        },
        "subject": {
          "reference": "Patient/Patient-6549",
          "display": "Rick Troy Hanson"
        },
        "context": {
          "reference": "Encounter/Encounter-1445",
          "display": "Wellness Visit"
        },
        "effectiveDateTime": "2004-08-20T00:00:00-04:00",
        "performer": [
          {
            "reference": "Practitioner/Practitioner-2526",
            "display": "James Woodward Wilkins MD"
          }
        ],
        "valueQuantity": {
          "value": 17.80765742779377,
          "unit": "mg/dL"
        }
      },
      "request": {
        "method": "PUT",
        "url": "http://localhost:8080/cqf-ruler/baseDstu3/Observation/Observation-342240"
      }
    },
    {
      "fullUrl": "http://localhost:8080/cqf-ruler/baseDstu3/Observation/Observation-342241",
      "resource": {
        "resourceType": "Observation",
        "id": "Observation-342241",
        "meta": {
          "profile": [
            "http://hl7.org/fhir/us/hedis/StructureDefinition/hedis-observation"
          ]
        },
        "status": "final",
        "code": {
          "coding": [
            {
              "system": "http://loinc.org",
              "code": "38483-4",
              "display": "Creatinine"
            }
          ]
        },
        "subject": {
          "reference": "Patient/Patient-6549",
          "display": "Rick Troy Hanson"
        },
        "context": {
          "reference": "Encounter/Encounter-1445",
          "display": "Wellness Visit"
        },
        "effectiveDateTime": "2004-08-20T00:00:00-04:00",
        "performer": [
          {
            "reference": "Practitioner/Practitioner-2526",
            "display": "James Woodward Wilkins MD"
          }
        ],
        "valueQuantity": {
          "value": 0.33364818224140336,
          "unit": "mg/dL"
        }
      },
      "request": {
        "method": "PUT",
        "url": "http://localhost:8080/cqf-ruler/baseDstu3/Observation/Observation-342241"
      }
    },
    {
      "fullUrl": "http://localhost:8080/cqf-ruler/baseDstu3/Observation/Observation-342242",
      "resource": {
        "resourceType": "Observation",
        "id": "Observation-342242",
        "meta": {
          "profile": [
            "http://hl7.org/fhir/us/hedis/StructureDefinition/hedis-observation"
          ]
        },
        "status": "final",
        "code": {
          "coding": [
            {
              "system": "http://loinc.org",
              "code": "49765-1",
              "display": "Calcium"
            }
          ]
        },
        "subject": {
          "reference": "Patient/Patient-6549",
          "display": "Rick Troy Hanson"
        },
        "context": {
          "reference": "Encounter/Encounter-1445",
          "display": "Wellness Visit"
        },
        "effectiveDateTime": "2004-08-20T00:00:00-04:00",
        "performer": [
          {
            "reference": "Practitioner/Practitioner-2526",
            "display": "James Woodward Wilkins MD"
          }
        ],
        "valueQuantity": {
          "value": 1.7000680118512108,
          "unit": "mmol/L"
        }
      },
      "request": {
        "method": "PUT",
        "url": "http://localhost:8080/cqf-ruler/baseDstu3/Observation/Observation-342242"
      }
    },
    {
      "fullUrl": "http://localhost:8080/cqf-ruler/baseDstu3/Observation/Observation-342243",
      "resource": {
        "resourceType": "Observation",
        "id": "Observation-342243",
        "meta": {
          "profile": [
            "http://hl7.org/fhir/us/hedis/StructureDefinition/hedis-observation"
          ]
        },
        "status": "final",
        "code": {
          "coding": [
            {
              "system": "http://loinc.org",
              "code": "2947-0",
              "display": "Sodium"
            }
          ]
        },
        "subject": {
          "reference": "Patient/Patient-6549",
          "display": "Rick Troy Hanson"
        },
        "context": {
          "reference": "Encounter/Encounter-1445",
          "display": "Wellness Visit"
        },
        "effectiveDateTime": "2004-08-20T00:00:00-04:00",
        "performer": [
          {
            "reference": "Practitioner/Practitioner-2526",
            "display": "James Woodward Wilkins MD"
          }
        ],
        "valueQuantity": {
          "value": 139.25147796262937,
          "unit": "mmol/L"
        }
      },
      "request": {
        "method": "PUT",
        "url": "http://localhost:8080/cqf-ruler/baseDstu3/Observation/Observation-342243"
      }
    },
    {
      "fullUrl": "http://localhost:8080/cqf-ruler/baseDstu3/Observation/Observation-342244",
      "resource": {
        "resourceType": "Observation",
        "id": "Observation-342244",
        "meta": {
          "profile": [
            "http://hl7.org/fhir/us/hedis/StructureDefinition/hedis-observation"
          ]
        },
        "status": "final",
        "code": {
          "coding": [
            {
              "system": "http://loinc.org",
              "code": "6298-4",
              "display": "Potassium"
            }
          ]
        },
        "subject": {
          "reference": "Patient/Patient-6549",
          "display": "Rick Troy Hanson"
        },
        "context": {
          "reference": "Encounter/Encounter-1445",
          "display": "Wellness Visit"
        },
        "effectiveDateTime": "2004-08-20T00:00:00-04:00",
        "performer": [
          {
            "reference": "Practitioner/Practitioner-2526",
            "display": "James Woodward Wilkins MD"
          }
        ],
        "valueQuantity": {
          "value": 4.229347691746732,
          "unit": "mmol/L"
        }
      },
      "request": {
        "method": "PUT",
        "url": "http://localhost:8080/cqf-ruler/baseDstu3/Observation/Observation-342244"
      }
    },
    {
      "fullUrl": "http://localhost:8080/cqf-ruler/baseDstu3/Observation/Observation-342245",
      "resource": {
        "resourceType": "Observation",
        "id": "Observation-342245",
        "meta": {
          "profile": [
            "http://hl7.org/fhir/us/hedis/StructureDefinition/hedis-observation"
          ]
        },
        "status": "final",
        "code": {
          "coding": [
            {
              "system": "http://loinc.org",
              "code": "2069-3",
              "display": "Chloride"
            }
          ]
        },
        "subject": {
          "reference": "Patient/Patient-6549",
          "display": "Rick Troy Hanson"
        },
        "context": {
          "reference": "Encounter/Encounter-1445",
          "display": "Wellness Visit"
        },
        "effectiveDateTime": "2004-08-20T00:00:00-04:00",
        "performer": [
          {
            "reference": "Practitioner/Practitioner-2526",
            "display": "James Woodward Wilkins MD"
          }
        ],
        "valueQuantity": {
          "value": 109.37749129312603,
          "unit": "mmol/L"
        }
      },
      "request": {
        "method": "PUT",
        "url": "http://localhost:8080/cqf-ruler/baseDstu3/Observation/Observation-342245"
      }
    },
    {
      "fullUrl": "http://localhost:8080/cqf-ruler/baseDstu3/Observation/Observation-342246",
      "resource": {
        "resourceType": "Observation",
        "id": "Observation-342246",
        "meta": {
          "profile": [
            "http://hl7.org/fhir/us/hedis/StructureDefinition/hedis-observation"
          ]
        },
        "status": "final",
        "code": {
          "coding": [
            {
              "system": "http://loinc.org",
              "code": "20565-8",
              "display": "Carbon Dioxide"
            }
          ]
        },
        "subject": {
          "reference": "Patient/Patient-6549",
          "display": "Rick Troy Hanson"
        },
        "context": {
          "reference": "Encounter/Encounter-1445",
          "display": "Wellness Visit"
        },
        "effectiveDateTime": "2004-08-20T00:00:00-04:00",
        "performer": [
          {
            "reference": "Practitioner/Practitioner-2526",
            "display": "James Woodward Wilkins MD"
          }
        ],
        "valueQuantity": {
          "value": 25.35278618148997,
          "unit": "mmol/L"
        }
      },
      "request": {
        "method": "PUT",
        "url": "http://localhost:8080/cqf-ruler/baseDstu3/Observation/Observation-342246"
      }
    },
    {
      "fullUrl": "http://localhost:8080/cqf-ruler/baseDstu3/DiagnosticReport/DiagnosticReport-342247",
      "resource": {
        "resourceType": "DiagnosticReport",
        "id": "DiagnosticReport-342247",
        "meta": {
          "profile": [
            "http://hl7.org/fhir/us/hedis/StructureDefinition/hedis-diagnosticreport"
          ]
        },
        "status": "final",
        "category": {
          "coding": [
            {
              "system": "http://hl7.org/fhir/ValueSet/diagnostic-service-sections",
              "code": "LAB",
              "display": "Laboratory"
            }
          ]
        },
        "code": {
          "coding": [
            {
              "system": "http://loinc.org",
              "code": "51990-0",
              "display": "Basic Metabolic Panel"
            }
          ]
        },
        "subject": {
          "reference": "Patient/Patient-6549",
          "display": "Rick Troy Hanson"
        },
        "context": {
          "reference": "Encounter/Encounter-1445",
          "display": "Wellness Visit"
        },
        "effectivePeriod": {
          "start": "2004-08-20T00:00:00-04:00",
          "end": "2004-08-20T00:00:00-04:00"
        },
        "issued": "2004-08-20T00:00:00.000-04:00",
        "result": [
          {
            "reference": "Observation/Observation-342239",
            "display": "Record_Glucose"
          },
          {
            "reference": "Observation/Observation-342240",
            "display": "Record_UreaNitrogen"
          },
          {
            "reference": "Observation/Observation-342241",
            "display": "Record_Creatinine"
          },
          {
            "reference": "Observation/Observation-342242",
            "display": "Record_Calcium"
          },
          {
            "reference": "Observation/Observation-342243",
            "display": "Record_Sodium"
          },
          {
            "reference": "Observation/Observation-342244",
            "display": "Record_Potassium"
          },
          {
            "reference": "Observation/Observation-342245",
            "display": "Record_Chloride"
          },
          {
            "reference": "Observation/Observation-342246",
            "display": "Record_CO2"
          }
        ]
      },
      "request": {
        "method": "PUT",
        "url": "http://localhost:8080/cqf-ruler/baseDstu3/DiagnosticReport/DiagnosticReport-342247"
      }
    },
    {
      "fullUrl": "http://localhost:8080/cqf-ruler/baseDstu3/Observation/Observation-342248",
      "resource": {
        "resourceType": "Observation",
        "id": "Observation-342248",
        "meta": {
          "profile": [
            "http://hl7.org/fhir/us/hedis/StructureDefinition/hedis-observation"
          ]
        },
        "status": "final",
        "code": {
          "coding": [
            {
              "system": "http://loinc.org",
              "code": "2093-3",
              "display": "Total Cholesterol"
            }
          ]
        },
        "subject": {
          "reference": "Patient/Patient-6549",
          "display": "Rick Troy Hanson"
        },
        "context": {
          "reference": "Encounter/Encounter-1445",
          "display": "Wellness Visit"
        },
        "effectiveDateTime": "2004-08-20T00:00:00-04:00",
        "performer": [
          {
            "reference": "Practitioner/Practitioner-2526",
            "display": "James Woodward Wilkins MD"
          }
        ],
        "valueQuantity": {
          "value": 154.59104315762235,
          "unit": "mg/dL"
        }
      },
      "request": {
        "method": "PUT",
        "url": "http://localhost:8080/cqf-ruler/baseDstu3/Observation/Observation-342248"
      }
    },
    {
      "fullUrl": "http://localhost:8080/cqf-ruler/baseDstu3/Observation/Observation-342249",
      "resource": {
        "resourceType": "Observation",
        "id": "Observation-342249",
        "meta": {
          "profile": [
            "http://hl7.org/fhir/us/hedis/StructureDefinition/hedis-observation"
          ]
        },
        "status": "final",
        "code": {
          "coding": [
            {
              "system": "http://loinc.org",
              "code": "2571-8",
              "display": "Triglycerides"
            }
          ]
        },
        "subject": {
          "reference": "Patient/Patient-6549",
          "display": "Rick Troy Hanson"
        },
        "context": {
          "reference": "Encounter/Encounter-1445",
          "display": "Wellness Visit"
        },
        "effectiveDateTime": "2004-08-20T00:00:00-04:00",
        "performer": [
          {
            "reference": "Practitioner/Practitioner-2526",
            "display": "James Woodward Wilkins MD"
          }
        ],
        "valueQuantity": {
          "value": 60.169559509973205,
          "unit": "mg/dL"
        }
      },
      "request": {
        "method": "PUT",
        "url": "http://localhost:8080/cqf-ruler/baseDstu3/Observation/Observation-342249"
      }
    },
    {
      "fullUrl": "http://localhost:8080/cqf-ruler/baseDstu3/Observation/Observation-342250",
      "resource": {
        "resourceType": "Observation",
        "id": "Observation-342250",
        "meta": {
          "profile": [
            "http://hl7.org/fhir/us/hedis/StructureDefinition/hedis-observation"
          ]
        },
        "status": "final",
        "code": {
          "coding": [
            {
              "system": "http://loinc.org",
              "code": "18262-6",
              "display": "Low Density Lipoprotein Cholesterol"
            }
          ]
        },
        "subject": {
          "reference": "Patient/Patient-6549",
          "display": "Rick Troy Hanson"
        },
        "context": {
          "reference": "Encounter/Encounter-1445",
          "display": "Wellness Visit"
        },
        "effectiveDateTime": "2004-08-20T00:00:00-04:00",
        "performer": [
          {
            "reference": "Practitioner/Practitioner-2526",
            "display": "James Woodward Wilkins MD"
          }
        ],
        "valueQuantity": {
          "value": 88.01207459103509,
          "unit": "mg/dL"
        }
      },
      "request": {
        "method": "PUT",
        "url": "http://localhost:8080/cqf-ruler/baseDstu3/Observation/Observation-342250"
      }
    },
    {
      "fullUrl": "http://localhost:8080/cqf-ruler/baseDstu3/Observation/Observation-342251",
      "resource": {
        "resourceType": "Observation",
        "id": "Observation-342251",
        "meta": {
          "profile": [
            "http://hl7.org/fhir/us/hedis/StructureDefinition/hedis-observation"
          ]
        },
        "status": "final",
        "code": {
          "coding": [
            {
              "system": "http://loinc.org",
              "code": "2085-9",
              "display": "High Density Lipoprotein Cholesterol"
            }
          ]
        },
        "subject": {
          "reference": "Patient/Patient-6549",
          "display": "Rick Troy Hanson"
        },
        "context": {
          "reference": "Encounter/Encounter-1445",
          "display": "Wellness Visit"
        },
        "effectiveDateTime": "2004-08-20T00:00:00-04:00",
        "performer": [
          {
            "reference": "Practitioner/Practitioner-2526",
            "display": "James Woodward Wilkins MD"
          }
        ],
        "valueQuantity": {
          "value": 54.54505666459263,
          "unit": "mg/dL"
        }
      },
      "request": {
        "method": "PUT",
        "url": "http://localhost:8080/cqf-ruler/baseDstu3/Observation/Observation-342251"
      }
    },
    {
      "fullUrl": "http://localhost:8080/cqf-ruler/baseDstu3/DiagnosticReport/DiagnosticReport-342252",
      "resource": {
        "resourceType": "DiagnosticReport",
        "id": "DiagnosticReport-342252",
        "meta": {
          "profile": [
            "http://hl7.org/fhir/us/hedis/StructureDefinition/hedis-diagnosticreport"
          ]
        },
        "status": "final",
        "category": {
          "coding": [
            {
              "system": "http://hl7.org/fhir/ValueSet/diagnostic-service-sections",
              "code": "LAB",
              "display": "Laboratory"
            }
          ]
        },
        "code": {
          "coding": [
            {
              "system": "http://loinc.org",
              "code": "57698-3",
              "display": "Lipid Panel"
            }
          ]
        },
        "subject": {
          "reference": "Patient/Patient-6549",
          "display": "Rick Troy Hanson"
        },
        "context": {
          "reference": "Encounter/Encounter-1445",
          "display": "Wellness Visit"
        },
        "effectivePeriod": {
          "start": "2004-08-20T00:00:00-04:00",
          "end": "2004-08-20T00:00:00-04:00"
        },
        "issued": "2004-08-20T00:00:00.000-04:00",
        "result": [
          {
            "reference": "Observation/Observation-342248",
            "display": "Record_Cholesterol"
          },
          {
            "reference": "Observation/Observation-342249",
            "display": "Record_Triglycerides"
          },
          {
            "reference": "Observation/Observation-342250",
            "display": "Record_LDL"
          },
          {
            "reference": "Observation/Observation-342251",
            "display": "Record_HDL"
          }
        ]
      },
      "request": {
        "method": "PUT",
        "url": "http://localhost:8080/cqf-ruler/baseDstu3/DiagnosticReport/DiagnosticReport-342252"
      }
    },
    {
      "fullUrl": "http://localhost:8080/cqf-ruler/baseDstu3/Observation/Observation-342254",
      "resource": {
        "resourceType": "Observation",
        "id": "Observation-342254",
        "status": "final",
        "code": {
          "coding": [
            {
              "system": "http://loinc.org",
              "code": "8302-2",
              "display": "Height"
            }
          ]
        },
        "subject": {
          "reference": "Patient/Patient-6549",
          "display": "Rick Troy Hanson"
        },
        "context": {
          "reference": "Encounter/Encounter-1445",
          "display": "Wellness Visit"
        },
        "effectiveDateTime": "2004-08-20T00:00:00-04:00",
        "performer": [
          {
            "reference": "Practitioner/Practitioner-2526",
            "display": "James Woodward Wilkins MD"
          }
        ],
        "valueQuantity": {
          "value": 176.8,
          "unit": "cm"
        }
      },
      "request": {
        "method": "PUT",
        "url": "http://localhost:8080/cqf-ruler/baseDstu3/Observation/Observation-342254"
      }
    },
    {
      "fullUrl": "http://localhost:8080/cqf-ruler/baseDstu3/Observation/Observation-342255",
      "resource": {
        "resourceType": "Observation",
        "id": "Observation-342255",
        "status": "final",
        "code": {
          "coding": [
            {
              "system": "http://loinc.org",
              "code": "29463-7",
              "display": "Weight"
            }
          ]
        },
        "subject": {
          "reference": "Patient/Patient-6549",
          "display": "Rick Troy Hanson"
        },
        "context": {
          "reference": "Encounter/Encounter-1445",
          "display": "Wellness Visit"
        },
        "effectiveDateTime": "2004-08-20T00:00:00-04:00",
        "performer": [
          {
            "reference": "Practitioner/Practitioner-2526",
            "display": "James Woodward Wilkins MD"
          }
        ],
        "valueQuantity": {
          "value": 94.78631443561007,
          "unit": "kg"
        }
      },
      "request": {
        "method": "PUT",
        "url": "http://localhost:8080/cqf-ruler/baseDstu3/Observation/Observation-342255"
      }
    },
    {
      "fullUrl": "http://localhost:8080/cqf-ruler/baseDstu3/Observation/Observation-342256",
      "resource": {
        "resourceType": "Observation",
        "id": "Observation-342256",
        "status": "final",
        "code": {
          "coding": [
            {
              "system": "http://loinc.org",
              "code": "39156-5",
              "display": "BMI"
            }
          ]
        },
        "subject": {
          "reference": "Patient/Patient-6549",
          "display": "Rick Troy Hanson"
        },
        "context": {
          "reference": "Encounter/Encounter-1445",
          "display": "Wellness Visit"
        },
        "effectiveDateTime": "2004-08-20T00:00:00-04:00",
        "performer": [
          {
            "reference": "Practitioner/Practitioner-2526",
            "display": "James Woodward Wilkins MD"
          }
        ],
        "valueQuantity": {
          "value": 30.323624885985282,
          "unit": "kg/m2"
        }
      },
      "request": {
        "method": "PUT",
        "url": "http://localhost:8080/cqf-ruler/baseDstu3/Observation/Observation-342256"
      }
    },
    {
      "fullUrl": "http://localhost:8080/cqf-ruler/baseDstu3/Observation/Observation-342257",
      "resource": {
        "resourceType": "Observation",
        "id": "Observation-342257",
        "status": "final",
        "code": {
          "coding": [
            {
              "system": "http://loinc.org",
              "code": "8310-5",
              "display": "Temperature"
            }
          ]
        },
        "subject": {
          "reference": "Patient/Patient-6549",
          "display": "Rick Troy Hanson"
        },
        "context": {
          "reference": "Encounter/Encounter-1445",
          "display": "Wellness Visit"
        },
        "effectiveDateTime": "2004-08-20T00:00:00-04:00",
        "performer": [
          {
            "reference": "Practitioner/Practitioner-2526",
            "display": "James Woodward Wilkins MD"
          }
        ],
        "valueQuantity": {
          "value": 37.0,
          "unit": "C"
        }
      },
      "request": {
        "method": "PUT",
        "url": "http://localhost:8080/cqf-ruler/baseDstu3/Observation/Observation-342257"
      }
    },
    {
      "fullUrl": "http://localhost:8080/cqf-ruler/baseDstu3/Observation/Observation-342258",
      "resource": {
        "resourceType": "Observation",
        "id": "Observation-342258",
        "status": "final",
        "code": {
          "coding": [
            {
              "system": "http://loinc.org",
              "code": "8459-0",
              "display": "Systolic Blood Pressure"
            }
          ]
        },
        "subject": {
          "reference": "Patient/Patient-6549",
          "display": "Rick Troy Hanson"
        },
        "context": {
          "reference": "Encounter/Encounter-1445",
          "display": "Wellness Visit"
        },
        "effectiveDateTime": "2004-08-20T00:00:00-04:00",
        "performer": [
          {
            "reference": "Practitioner/Practitioner-2526",
            "display": "James Woodward Wilkins MD"
          }
        ],
        "valueQuantity": {
          "value": 124.06564855115494,
          "unit": "mmHg"
        }
      },
      "request": {
        "method": "PUT",
        "url": "http://localhost:8080/cqf-ruler/baseDstu3/Observation/Observation-342258"
      }
    },
    {
      "fullUrl": "http://localhost:8080/cqf-ruler/baseDstu3/Observation/Observation-342259",
      "resource": {
        "resourceType": "Observation",
        "id": "Observation-342259",
        "status": "final",
        "code": {
          "coding": [
            {
              "system": "http://loinc.org",
              "code": "8453-3",
              "display": "Diastolic Blood Pressure"
            }
          ]
        },
        "subject": {
          "reference": "Patient/Patient-6549",
          "display": "Rick Troy Hanson"
        },
        "context": {
          "reference": "Encounter/Encounter-1445",
          "display": "Wellness Visit"
        },
        "effectiveDateTime": "2004-08-20T00:00:00-04:00",
        "performer": [
          {
            "reference": "Practitioner/Practitioner-2526",
            "display": "James Woodward Wilkins MD"
          }
        ],
        "valueQuantity": {
          "value": 87.98293577120067,
          "unit": "mmHg"
        }
      },
      "request": {
        "method": "PUT",
        "url": "http://localhost:8080/cqf-ruler/baseDstu3/Observation/Observation-342259"
      }
    },
    {
      "fullUrl": "http://localhost:8080/cqf-ruler/baseDstu3/DiagnosticReport/DiagnosticReport-342253",
      "resource": {
        "resourceType": "DiagnosticReport",
        "id": "DiagnosticReport-342253",
        "meta": {
          "profile": [
            "http://hl7.org/fhir/us/hedis/StructureDefinition/hedis-diagnosticreport"
          ]
        },
        "status": "final",
        "category": {
          "coding": [
            {
              "system": "http://hl7.org/fhir/ValueSet/diagnostic-service-sections",
              "code": "LAB",
              "display": "Laboratory"
            }
          ]
        },
        "code": {
          "coding": [
            {
              "system": "http://loinc.org",
              "code": "8716-3",
              "display": "Vital Signs Panel"
            }
          ]
        },
        "subject": {
          "reference": "Patient/Patient-6549",
          "display": "Rick Troy Hanson"
        },
        "context": {
          "reference": "Encounter/Encounter-1445",
          "display": "Wellness Visit"
        },
        "effectivePeriod": {
          "start": "2004-08-20T00:00:00-04:00",
          "end": "2004-08-20T00:00:00-04:00"
        },
        "issued": "2004-08-20T00:00:00.000-04:00",
        "result": [
          {
            "reference": "Observation/Observation-342254",
            "display": "Height"
          },
          {
            "reference": "Observation/Observation-342255",
            "display": "Weight"
          },
          {
            "reference": "Observation/Observation-342256",
            "display": "BMI"
          },
          {
            "reference": "Observation/Observation-342257",
            "display": "Temperature"
          },
          {
            "reference": "Observation/Observation-342258",
            "display": "Systolic Blood Pressure"
          },
          {
            "reference": "Observation/Observation-342259",
            "display": "Diastolic Blood Pressure"
          }
        ]
      },
      "request": {
        "method": "PUT",
        "url": "http://localhost:8080/cqf-ruler/baseDstu3/DiagnosticReport/DiagnosticReport-342253"
      }
    }
  ]
}