{
  "resourceType": "Bundle",
  "id": "Louise-Foster-Campbell-1131-Encounter-2171",
  "type": "transaction",
  "entry": [
    {
      "fullUrl": "http://localhost:8080/cqf-ruler/baseDstu3Encounter/Encounter-2171",
      "resource": {
        "resourceType": "Encounter",
        "id": "Encounter-2171",
        "status": "finished",
        "class": {
          "system": "http://hl7.org/fhir/encounter-class",
          "code": "outpatient",
          "display": "Inpatient"
        },
        "subject": {
          "reference": "Patient/Patient-1131",
          "display": "Louise Foster Campbell"
        },
        "participant": [
          {
            "period": {
              "start": "2010-12-27T10:00:00-05:00",
              "end": "2010-12-27T10:00:00-05:00"
            },
            "individual": {
              "reference": "Practitioner/Practitioner-2527",
              "display": "Lee Chris Mejia MD"
            }
          }
        ],
        "period": {
          "start": "2010-12-27T10:00:00-05:00",
          "end": "2010-12-27T10:00:00-05:00"
        },
        "location": [
          {
            "location": {
              "reference": "Location/Location-1106",
              "display": "Cranston Family Medical"
            }
          }
        ],
        "serviceProvider": {
          "reference": "Organization/Organization-1106",
          "display": "Cranston Family Medical"
        }
      },
      "request": {
        "method": "PUT",
        "url": "http://localhost:8080/cqf-ruler/baseDstu3Encounter/Encounter-2171"
      }
    },
    {
      "fullUrl": "http://localhost:8080/cqf-ruler/baseDstu3Immunization/Immunization-470549",
      "resource": {
        "resourceType": "Immunization",
        "id": "Immunization-470549",
        "status": "completed",
        "notGiven": false,
        "vaccineCode": {
          "coding": [
            {
              "system": "http://hl7.org/fhir/sid/cvx",
              "code": "08",
              "display": "Hep B, adolescent or pediatric"
            }
          ]
        },
        "patient": {
          "reference": "Patient/Patient-1131",
          "display": "Louise Foster Campbell"
        },
        "date": "2010-12-27T10:00:00-05:00",
        "primarySource": true,
        "location": {
          "reference": "Location/Location-1106",
          "display": "Cranston Family Medical"
        },
        "practitioner": [
          {
            "actor": {
              "reference": "Practitioner/Practitioner-2527",
              "display": "Lee Chris Mejia MD"
            }
          }
        ]
      },
      "request": {
        "method": "PUT",
        "url": "http://localhost:8080/cqf-ruler/baseDstu3Immunization/Immunization-470549"
      }
    },
    {
      "fullUrl": "http://localhost:8080/cqf-ruler/baseDstu3Observation/Observation-471874",
      "resource": {
        "resourceType": "Observation",
        "id": "Observation-471874",
        "status": "final",
        "code": {
          "coding": [
            {
              "system": "http://loinc.org",
              "code": "8302-2",
              "display": "Height"
            }
          ]
        },
        "subject": {
          "reference": "Patient/Patient-1131",
          "display": "Louise Foster Campbell"
        },
        "context": {
          "reference": "Encounter/Encounter-2171",
          "display": "Wellness Visit"
        },
        "effectiveDateTime": "2010-12-27T10:00:00-05:00",
        "performer": [
          {
            "reference": "Practitioner/Practitioner-2527",
            "display": "Lee Chris Mejia MD"
          }
        ],
        "valueQuantity": {
          "value": 49.3,
          "unit": "cm"
        }
      },
      "request": {
        "method": "PUT",
        "url": "http://localhost:8080/cqf-ruler/baseDstu3Observation/Observation-471874"
      }
    },
    {
      "fullUrl": "http://localhost:8080/cqf-ruler/baseDstu3Observation/Observation-471875",
      "resource": {
        "resourceType": "Observation",
        "id": "Observation-471875",
        "status": "final",
        "code": {
          "coding": [
            {
              "system": "http://loinc.org",
              "code": "29463-7",
              "display": "Weight"
            }
          ]
        },
        "subject": {
          "reference": "Patient/Patient-1131",
          "display": "Louise Foster Campbell"
        },
        "context": {
          "reference": "Encounter/Encounter-2171",
          "display": "Wellness Visit"
        },
        "effectiveDateTime": "2010-12-27T10:00:00-05:00",
        "performer": [
          {
            "reference": "Practitioner/Practitioner-2527",
            "display": "Lee Chris Mejia MD"
          }
        ],
        "valueQuantity": {
          "value": 0.0,
          "unit": "kg"
        }
      },
      "request": {
        "method": "PUT",
        "url": "http://localhost:8080/cqf-ruler/baseDstu3Observation/Observation-471875"
      }
    },
    {
      "fullUrl": "http://localhost:8080/cqf-ruler/baseDstu3Observation/Observation-471876",
      "resource": {
        "resourceType": "Observation",
        "id": "Observation-471876",
        "status": "final",
        "code": {
          "coding": [
            {
              "system": "http://loinc.org",
              "code": "39156-5",
              "display": "BMI"
            }
          ]
        },
        "subject": {
          "reference": "Patient/Patient-1131",
          "display": "Louise Foster Campbell"
        },
        "context": {
          "reference": "Encounter/Encounter-2171",
          "display": "Wellness Visit"
        },
        "effectiveDateTime": "2010-12-27T10:00:00-05:00",
        "performer": [
          {
            "reference": "Practitioner/Practitioner-2527",
            "display": "Lee Chris Mejia MD"
          }
        ],
        "valueQuantity": {
          "value": 0.0,
          "unit": "kg/m2"
        }
      },
      "request": {
        "method": "PUT",
        "url": "http://localhost:8080/cqf-ruler/baseDstu3Observation/Observation-471876"
      }
    },
    {
      "fullUrl": "http://localhost:8080/cqf-ruler/baseDstu3Observation/Observation-471877",
      "resource": {
        "resourceType": "Observation",
        "id": "Observation-471877",
        "status": "final",
        "code": {
          "coding": [
            {
              "system": "http://loinc.org",
              "code": "8310-5",
              "display": "Temperature"
            }
          ]
        },
        "subject": {
          "reference": "Patient/Patient-1131",
          "display": "Louise Foster Campbell"
        },
        "context": {
          "reference": "Encounter/Encounter-2171",
          "display": "Wellness Visit"
        },
        "effectiveDateTime": "2010-12-27T10:00:00-05:00",
        "performer": [
          {
            "reference": "Practitioner/Practitioner-2527",
            "display": "Lee Chris Mejia MD"
          }
        ],
        "valueQuantity": {
          "value": 37.0,
          "unit": "C"
        }
      },
      "request": {
        "method": "PUT",
        "url": "http://localhost:8080/cqf-ruler/baseDstu3Observation/Observation-471877"
      }
    },
    {
      "fullUrl": "http://localhost:8080/cqf-ruler/baseDstu3Observation/Observation-471878",
      "resource": {
        "resourceType": "Observation",
        "id": "Observation-471878",
        "status": "final",
        "code": {
          "coding": [
            {
              "system": "http://loinc.org",
              "code": "8459-0",
              "display": "Systolic Blood Pressure"
            }
          ]
        },
        "subject": {
          "reference": "Patient/Patient-1131",
          "display": "Louise Foster Campbell"
        },
        "context": {
          "reference": "Encounter/Encounter-2171",
          "display": "Wellness Visit"
        },
        "effectiveDateTime": "2010-12-27T10:00:00-05:00",
        "performer": [
          {
            "reference": "Practitioner/Practitioner-2527",
            "display": "Lee Chris Mejia MD"
          }
        ],
        "valueQuantity": {
          "value": 110.12693662650159,
          "unit": "mmHg"
        }
      },
      "request": {
        "method": "PUT",
        "url": "http://localhost:8080/cqf-ruler/baseDstu3Observation/Observation-471878"
      }
    },
    {
      "fullUrl": "http://localhost:8080/cqf-ruler/baseDstu3Observation/Observation-471879",
      "resource": {
        "resourceType": "Observation",
        "id": "Observation-471879",
        "status": "final",
        "code": {
          "coding": [
            {
              "system": "http://loinc.org",
              "code": "8453-3",
              "display": "Diastolic Blood Pressure"
            }
          ]
        },
        "subject": {
          "reference": "Patient/Patient-1131",
          "display": "Louise Foster Campbell"
        },
        "context": {
          "reference": "Encounter/Encounter-2171",
          "display": "Wellness Visit"
        },
        "effectiveDateTime": "2010-12-27T10:00:00-05:00",
        "performer": [
          {
            "reference": "Practitioner/Practitioner-2527",
            "display": "Lee Chris Mejia MD"
          }
        ],
        "valueQuantity": {
          "value": 79.73115499008861,
          "unit": "mmHg"
        }
      },
      "request": {
        "method": "PUT",
        "url": "http://localhost:8080/cqf-ruler/baseDstu3Observation/Observation-471879"
      }
    },
    {
      "fullUrl": "http://localhost:8080/cqf-ruler/baseDstu3DiagnosticReport/DiagnosticReport-471873",
      "resource": {
        "resourceType": "DiagnosticReport",
        "id": "DiagnosticReport-471873",
        "status": "final",
        "code": {
          "coding": [
            {
              "system": "http://loinc.org",
              "code": "8716-3",
              "display": "Vital Signs Panel"
            }
          ]
        },
        "subject": {
          "reference": "Patient/Patient-1131",
          "display": "Louise Foster Campbell"
        },
        "context": {
          "reference": "Encounter/Encounter-2171",
          "display": "Wellness Visit"
        },
        "effectivePeriod": {
          "start": "2010-12-27T10:00:00-05:00",
          "end": "2010-12-27T10:00:00-05:00"
        },
        "issued": "2010-12-27T10:00:00.000-05:00",
        "result": [
          {
            "reference": "Observation/Observation-471874",
            "display": "Height"
          },
          {
            "reference": "Observation/Observation-471875",
            "display": "Weight"
          },
          {
            "reference": "Observation/Observation-471876",
            "display": "BMI"
          },
          {
            "reference": "Observation/Observation-471877",
            "display": "Temperature"
          },
          {
            "reference": "Observation/Observation-471878",
            "display": "Systolic Blood Pressure"
          },
          {
            "reference": "Observation/Observation-471879",
            "display": "Diastolic Blood Pressure"
          }
        ]
      },
      "request": {
        "method": "PUT",
        "url": "http://localhost:8080/cqf-ruler/baseDstu3DiagnosticReport/DiagnosticReport-471873"
      }
    }
  ]
}