{
  "resourceType": "Bundle",
  "id": "Louise Foster Campbell-1131-Encounter-2048",
  "type": "transaction",
  "entry": [
    {
      "fullUrl": "http://localhost:8080/cqf-ruler/baseDstu3/Encounter/Encounter-2048",
      "resource": {
        "resourceType": "Encounter",
        "id": "Encounter-2048",
        "status": "finished",
        "class": {
          "system": "http://hl7.org/fhir/encounter-class",
          "code": "outpatient",
          "display": "Inpatient"
        },
        "subject": {
          "reference": "Patient/Patient-1131",
          "display": "Louise Foster Campbell"
        },
        "participant": [
          {
            "period": {
              "start": "2009-12-15T20:00:00-05:00",
              "end": "2009-12-15T20:00:00-05:00"
            },
            "individual": {
              "reference": "Practitioner/Practitioner-2527",
              "display": "Lee Chris Mejia MD"
            }
          }
        ],
        "period": {
          "start": "2009-12-15T20:00:00-05:00",
          "end": "2009-12-15T20:00:00-05:00"
        },
        "location": [
          {
            "location": {
              "reference": "Location/Location-1106",
              "display": "Cranston Family Medical"
            }
          }
        ],
        "serviceProvider": {
          "reference": "Organization/Organization-1106",
          "display": "Cranston Family Medical"
        }
      },
      "request": {
        "method": "PUT",
        "url": "http://localhost:8080/cqf-ruler/baseDstu3/Encounter/Encounter-2048"
      }
    },
    {
      "fullUrl": "http://localhost:8080/cqf-ruler/baseDstu3/Observation/Observation-449239",
      "resource": {
        "resourceType": "Observation",
        "id": "Observation-449239",
        "status": "final",
        "code": {
          "coding": [
            {
              "system": "http://loinc.org",
              "code": "8302-2",
              "display": "Height"
            }
          ]
        },
        "subject": {
          "reference": "Patient/Patient-1131",
          "display": "Louise Foster Campbell"
        },
        "context": {
          "reference": "Encounter/Encounter-2048",
          "display": "Cranston Family Medical"
        },
        "effectiveDateTime": "2009-12-15T20:00:00-05:00",
        "performer": [
          {
            "reference": "Practitioner/Practitioner-2527",
            "display": "Lee Chris Mejia MD"
          }
        ],
        "valueQuantity": {
          "value": 0.0,
          "unit": "cm"
        }
      },
      "request": {
        "method": "PUT",
        "url": "http://localhost:8080/cqf-ruler/baseDstu3/Observation/Observation-449239"
      }
    },
    {
      "fullUrl": "http://localhost:8080/cqf-ruler/baseDstu3/Observation/Observation-449240",
      "resource": {
        "resourceType": "Observation",
        "id": "Observation-449240",
        "status": "final",
        "code": {
          "coding": [
            {
              "system": "http://loinc.org",
              "code": "29463-7",
              "display": "Weight"
            }
          ]
        },
        "subject": {
          "reference": "Patient/Patient-1131",
          "display": "Louise Foster Campbell"
        },
        "context": {
          "reference": "Encounter/Encounter-2048",
          "display": "Cranston Family Medical"
        },
        "effectiveDateTime": "2009-12-15T20:00:00-05:00",
        "performer": [
          {
            "reference": "Practitioner/Practitioner-2527",
            "display": "Lee Chris Mejia MD"
          }
        ],
        "valueQuantity": {
          "value": 0.0,
          "unit": "kg"
        }
      },
      "request": {
        "method": "PUT",
        "url": "http://localhost:8080/cqf-ruler/baseDstu3/Observation/Observation-449240"
      }
    },
    {
      "fullUrl": "http://localhost:8080/cqf-ruler/baseDstu3/Observation/Observation-449241",
      "resource": {
        "resourceType": "Observation",
        "id": "Observation-449241",
        "status": "final",
        "code": {
          "coding": [
            {
              "system": "http://loinc.org",
              "code": "39156-5",
              "display": "BMI"
            }
          ]
        },
        "subject": {
          "reference": "Patient/Patient-1131",
          "display": "Louise Foster Campbell"
        },
        "context": {
          "reference": "Encounter/Encounter-2048",
          "display": "Cranston Family Medical"
        },
        "effectiveDateTime": "2009-12-15T20:00:00-05:00",
        "performer": [
          {
            "reference": "Practitioner/Practitioner-2527",
            "display": "Lee Chris Mejia MD"
          }
        ],
        "valueQuantity": {
          "value": 0.0,
          "unit": "kg/m2"
        }
      },
      "request": {
        "method": "PUT",
        "url": "http://localhost:8080/cqf-ruler/baseDstu3/Observation/Observation-449241"
      }
    },
    {
      "fullUrl": "http://localhost:8080/cqf-ruler/baseDstu3/Observation/Observation-449242",
      "resource": {
        "resourceType": "Observation",
        "id": "Observation-449242",
        "status": "final",
        "code": {
          "coding": [
            {
              "system": "http://loinc.org",
              "code": "8310-5",
              "display": "Temperature"
            }
          ]
        },
        "subject": {
          "reference": "Patient/Patient-1131",
          "display": "Louise Foster Campbell"
        },
        "context": {
          "reference": "Encounter/Encounter-2048",
          "display": "Cranston Family Medical"
        },
        "effectiveDateTime": "2009-12-15T20:00:00-05:00",
        "performer": [
          {
            "reference": "Practitioner/Practitioner-2527",
            "display": "Lee Chris Mejia MD"
          }
        ],
        "valueQuantity": {
          "value": 37.0,
          "unit": "C"
        }
      },
      "request": {
        "method": "PUT",
        "url": "http://localhost:8080/cqf-ruler/baseDstu3/Observation/Observation-449242"
      }
    },
    {
      "fullUrl": "http://localhost:8080/cqf-ruler/baseDstu3/Observation/Observation-449243",
      "resource": {
        "resourceType": "Observation",
        "id": "Observation-449243",
        "status": "final",
        "code": {
          "coding": [
            {
              "system": "http://loinc.org",
              "code": "8459-0",
              "display": "Systolic Blood Pressure"
            }
          ]
        },
        "subject": {
          "reference": "Patient/Patient-1131",
          "display": "Louise Foster Campbell"
        },
        "context": {
          "reference": "Encounter/Encounter-2048",
          "display": "Cranston Family Medical"
        },
        "effectiveDateTime": "2009-12-15T20:00:00-05:00",
        "performer": [
          {
            "reference": "Practitioner/Practitioner-2527",
            "display": "Lee Chris Mejia MD"
          }
        ],
        "valueQuantity": {
          "value": 102.65938970759638,
          "unit": "mmHg"
        }
      },
      "request": {
        "method": "PUT",
        "url": "http://localhost:8080/cqf-ruler/baseDstu3/Observation/Observation-449243"
      }
    },
    {
      "fullUrl": "http://localhost:8080/cqf-ruler/baseDstu3/Observation/Observation-449244",
      "resource": {
        "resourceType": "Observation",
        "id": "Observation-449244",
        "status": "final",
        "code": {
          "coding": [
            {
              "system": "http://loinc.org",
              "code": "8453-3",
              "display": "Diastolic Blood Pressure"
            }
          ]
        },
        "subject": {
          "reference": "Patient/Patient-1131",
          "display": "Louise Foster Campbell"
        },
        "context": {
          "reference": "Encounter/Encounter-2048",
          "display": "Cranston Family Medical"
        },
        "effectiveDateTime": "2009-12-15T20:00:00-05:00",
        "performer": [
          {
            "reference": "Practitioner/Practitioner-2527",
            "display": "Lee Chris Mejia MD"
          }
        ],
        "valueQuantity": {
          "value": 82.50455476928667,
          "unit": "mmHg"
        }
      },
      "request": {
        "method": "PUT",
        "url": "http://localhost:8080/cqf-ruler/baseDstu3/Observation/Observation-449244"
      }
    },
    {
      "fullUrl": "http://localhost:8080/cqf-ruler/baseDstu3/DiagnosticReport/DiagnosticReport-449238",
      "resource": {
        "resourceType": "DiagnosticReport",
        "id": "DiagnosticReport-449238",
        "status": "final",
        "code": {
          "coding": [
            {
              "system": "http://loinc.org",
              "code": "8716-3",
              "display": "Vital Signs Panel"
            }
          ]
        },
        "subject": {
          "reference": "Patient/Patient-1131",
          "display": "Louise Foster Campbell"
        },
        "context": {
          "reference": "Encounter/Encounter-2048",
          "display": "Cranston Family Medical"
        },
        "effectivePeriod": {
          "start": "2009-12-15T20:00:00-05:00",
          "end": "2009-12-15T20:00:00-05:00"
        },
        "issued": "2009-12-15T20:00:00.000-05:00",
        "result": [
          {
            "reference": "Observation/Observation-449239",
            "display": "Height"
          },
          {
            "reference": "Observation/Observation-449240",
            "display": "Weight"
          },
          {
            "reference": "Observation/Observation-449241",
            "display": "BMI"
          },
          {
            "reference": "Observation/Observation-449242",
            "display": "Temperature"
          },
          {
            "reference": "Observation/Observation-449243",
            "display": "Systolic Blood Pressure"
          },
          {
            "reference": "Observation/Observation-449244",
            "display": "Diastolic Blood Pressure"
          }
        ]
      },
      "request": {
        "method": "PUT",
        "url": "http://localhost:8080/cqf-ruler/baseDstu3/DiagnosticReport/DiagnosticReport-449238"
      }
    }
  ]
}