{
  "resourceType": "Bundle",
  "id": "Raoul-Santiago-Gonzales-1134-Encounter-1072",
  "type": "transaction",
  "entry": [
    {
      "fullUrl": "http://localhost:8080/cqf-ruler/baseDstu3Encounter/Encounter-1072",
      "resource": {
        "resourceType": "Encounter",
        "id": "Encounter-1072",
        "status": "finished",
        "class": {
          "system": "http://hl7.org/fhir/encounter-class",
          "code": "outpatient",
          "display": "Inpatient"
        },
        "subject": {
          "reference": "Patient/Patient-1134",
          "display": "Raoul Santiago Gonzales"
        },
        "participant": [
          {
            "period": {
              "start": "1998-05-01T19:00:00-04:00",
              "end": "1998-05-01T19:00:00-04:00"
            },
            "individual": {
              "reference": "Practitioner/Practitioner-2530",
              "display": "Terrence Ramirez McCormick MD"
            }
          }
        ],
        "period": {
          "start": "1998-05-01T19:00:00-04:00",
          "end": "1998-05-01T19:00:00-04:00"
        },
        "location": [
          {
            "location": {
              "reference": "Location/Location-1103",
              "display": "Acme Medical Center"
            }
          }
        ],
        "serviceProvider": {
          "reference": "Organization/Organization-1103",
          "display": "Acme Medical Center"
        }
      },
      "request": {
        "method": "PUT",
        "url": "http://localhost:8080/cqf-ruler/baseDstu3Encounter/Encounter-1072"
      }
    },
    {
      "fullUrl": "http://localhost:8080/cqf-ruler/baseDstu3Observation/Observation-199413",
      "resource": {
        "resourceType": "Observation",
        "id": "Observation-199413",
        "status": "final",
        "code": {
          "coding": [
            {
              "system": "http://loinc.org",
              "code": "8302-2",
              "display": "Height"
            }
          ]
        },
        "subject": {
          "reference": "Patient/Patient-1134",
          "display": "Raoul Santiago Gonzales"
        },
        "context": {
          "reference": "Encounter/Encounter-1072",
          "display": "Wellness Visit"
        },
        "effectiveDateTime": "1998-05-01T19:00:00-04:00",
        "performer": [
          {
            "reference": "Practitioner/Practitioner-2530",
            "display": "Terrence Ramirez McCormick MD"
          }
        ],
        "valueQuantity": {
          "value": 0.0,
          "unit": "cm"
        }
      },
      "request": {
        "method": "PUT",
        "url": "http://localhost:8080/cqf-ruler/baseDstu3Observation/Observation-199413"
      }
    },
    {
      "fullUrl": "http://localhost:8080/cqf-ruler/baseDstu3Observation/Observation-199414",
      "resource": {
        "resourceType": "Observation",
        "id": "Observation-199414",
        "status": "final",
        "code": {
          "coding": [
            {
              "system": "http://loinc.org",
              "code": "29463-7",
              "display": "Weight"
            }
          ]
        },
        "subject": {
          "reference": "Patient/Patient-1134",
          "display": "Raoul Santiago Gonzales"
        },
        "context": {
          "reference": "Encounter/Encounter-1072",
          "display": "Wellness Visit"
        },
        "effectiveDateTime": "1998-05-01T19:00:00-04:00",
        "performer": [
          {
            "reference": "Practitioner/Practitioner-2530",
            "display": "Terrence Ramirez McCormick MD"
          }
        ],
        "valueQuantity": {
          "value": 0.0,
          "unit": "kg"
        }
      },
      "request": {
        "method": "PUT",
        "url": "http://localhost:8080/cqf-ruler/baseDstu3Observation/Observation-199414"
      }
    },
    {
      "fullUrl": "http://localhost:8080/cqf-ruler/baseDstu3Observation/Observation-199415",
      "resource": {
        "resourceType": "Observation",
        "id": "Observation-199415",
        "status": "final",
        "code": {
          "coding": [
            {
              "system": "http://loinc.org",
              "code": "39156-5",
              "display": "BMI"
            }
          ]
        },
        "subject": {
          "reference": "Patient/Patient-1134",
          "display": "Raoul Santiago Gonzales"
        },
        "context": {
          "reference": "Encounter/Encounter-1072",
          "display": "Wellness Visit"
        },
        "effectiveDateTime": "1998-05-01T19:00:00-04:00",
        "performer": [
          {
            "reference": "Practitioner/Practitioner-2530",
            "display": "Terrence Ramirez McCormick MD"
          }
        ],
        "valueQuantity": {
          "value": 0.0,
          "unit": "kg/m2"
        }
      },
      "request": {
        "method": "PUT",
        "url": "http://localhost:8080/cqf-ruler/baseDstu3Observation/Observation-199415"
      }
    },
    {
      "fullUrl": "http://localhost:8080/cqf-ruler/baseDstu3Observation/Observation-199416",
      "resource": {
        "resourceType": "Observation",
        "id": "Observation-199416",
        "status": "final",
        "code": {
          "coding": [
            {
              "system": "http://loinc.org",
              "code": "8310-5",
              "display": "Temperature"
            }
          ]
        },
        "subject": {
          "reference": "Patient/Patient-1134",
          "display": "Raoul Santiago Gonzales"
        },
        "context": {
          "reference": "Encounter/Encounter-1072",
          "display": "Wellness Visit"
        },
        "effectiveDateTime": "1998-05-01T19:00:00-04:00",
        "performer": [
          {
            "reference": "Practitioner/Practitioner-2530",
            "display": "Terrence Ramirez McCormick MD"
          }
        ],
        "valueQuantity": {
          "value": 37.0,
          "unit": "C"
        }
      },
      "request": {
        "method": "PUT",
        "url": "http://localhost:8080/cqf-ruler/baseDstu3Observation/Observation-199416"
      }
    },
    {
      "fullUrl": "http://localhost:8080/cqf-ruler/baseDstu3Observation/Observation-199417",
      "resource": {
        "resourceType": "Observation",
        "id": "Observation-199417",
        "status": "final",
        "code": {
          "coding": [
            {
              "system": "http://loinc.org",
              "code": "8459-0",
              "display": "Systolic Blood Pressure"
            }
          ]
        },
        "subject": {
          "reference": "Patient/Patient-1134",
          "display": "Raoul Santiago Gonzales"
        },
        "context": {
          "reference": "Encounter/Encounter-1072",
          "display": "Wellness Visit"
        },
        "effectiveDateTime": "1998-05-01T19:00:00-04:00",
        "performer": [
          {
            "reference": "Practitioner/Practitioner-2530",
            "display": "Terrence Ramirez McCormick MD"
          }
        ],
        "valueQuantity": {
          "value": 120.16217575182147,
          "unit": "mmHg"
        }
      },
      "request": {
        "method": "PUT",
        "url": "http://localhost:8080/cqf-ruler/baseDstu3Observation/Observation-199417"
      }
    },
    {
      "fullUrl": "http://localhost:8080/cqf-ruler/baseDstu3Observation/Observation-199418",
      "resource": {
        "resourceType": "Observation",
        "id": "Observation-199418",
        "status": "final",
        "code": {
          "coding": [
            {
              "system": "http://loinc.org",
              "code": "8453-3",
              "display": "Diastolic Blood Pressure"
            }
          ]
        },
        "subject": {
          "reference": "Patient/Patient-1134",
          "display": "Raoul Santiago Gonzales"
        },
        "context": {
          "reference": "Encounter/Encounter-1072",
          "display": "Wellness Visit"
        },
        "effectiveDateTime": "1998-05-01T19:00:00-04:00",
        "performer": [
          {
            "reference": "Practitioner/Practitioner-2530",
            "display": "Terrence Ramirez McCormick MD"
          }
        ],
        "valueQuantity": {
          "value": 83.36462451316987,
          "unit": "mmHg"
        }
      },
      "request": {
        "method": "PUT",
        "url": "http://localhost:8080/cqf-ruler/baseDstu3Observation/Observation-199418"
      }
    },
    {
      "fullUrl": "http://localhost:8080/cqf-ruler/baseDstu3DiagnosticReport/DiagnosticReport-199412",
      "resource": {
        "resourceType": "DiagnosticReport",
        "id": "DiagnosticReport-199412",
        "status": "final",
        "code": {
          "coding": [
            {
              "system": "http://loinc.org",
              "code": "8716-3",
              "display": "Vital Signs Panel"
            }
          ]
        },
        "subject": {
          "reference": "Patient/Patient-1134",
          "display": "Raoul Santiago Gonzales"
        },
        "context": {
          "reference": "Encounter/Encounter-1072",
          "display": "Wellness Visit"
        },
        "effectivePeriod": {
          "start": "1998-05-01T19:00:00-04:00",
          "end": "1998-05-01T19:00:00-04:00"
        },
        "issued": "1998-05-01T19:00:00.000-04:00",
        "result": [
          {
            "reference": "Observation/Observation-199413",
            "display": "Height"
          },
          {
            "reference": "Observation/Observation-199414",
            "display": "Weight"
          },
          {
            "reference": "Observation/Observation-199415",
            "display": "BMI"
          },
          {
            "reference": "Observation/Observation-199416",
            "display": "Temperature"
          },
          {
            "reference": "Observation/Observation-199417",
            "display": "Systolic Blood Pressure"
          },
          {
            "reference": "Observation/Observation-199418",
            "display": "Diastolic Blood Pressure"
          }
        ]
      },
      "request": {
        "method": "PUT",
        "url": "http://localhost:8080/cqf-ruler/baseDstu3DiagnosticReport/DiagnosticReport-199412"
      }
    }
  ]
}