{
  "resourceType": "Bundle",
  "id": "Raoul-Santiago-Gonzales-1134-Encounter-1043",
  "type": "transaction",
  "entry": [
    {
      "fullUrl": "http://localhost:8080/cqf-ruler/baseDstu3Encounter/Encounter-1043",
      "resource": {
        "resourceType": "Encounter",
        "id": "Encounter-1043",
        "status": "finished",
        "class": {
          "system": "http://hl7.org/fhir/encounter-class",
          "code": "outpatient",
          "display": "Inpatient"
        },
        "subject": {
          "reference": "Patient/Patient-1134",
          "display": "Raoul Santiago Gonzales"
        },
        "participant": [
          {
            "period": {
              "start": "1997-11-30T16:00:00-05:00",
              "end": "1997-11-30T16:00:00-05:00"
            },
            "individual": {
              "reference": "Practitioner/Practitioner-2530",
              "display": "Terrence Ramirez McCormick MD"
            }
          }
        ],
        "period": {
          "start": "1997-11-30T16:00:00-05:00",
          "end": "1997-11-30T16:00:00-05:00"
        },
        "location": [
          {
            "location": {
              "reference": "Location/Location-1103",
              "display": "Acme Medical Center"
            }
          }
        ],
        "serviceProvider": {
          "reference": "Organization/Organization-1103",
          "display": "Acme Medical Center"
        }
      },
      "request": {
        "method": "PUT",
        "url": "http://localhost:8080/cqf-ruler/baseDstu3Encounter/Encounter-1043"
      }
    },
    {
      "fullUrl": "http://localhost:8080/cqf-ruler/baseDstu3Observation/Observation-191054",
      "resource": {
        "resourceType": "Observation",
        "id": "Observation-191054",
        "status": "final",
        "code": {
          "coding": [
            {
              "system": "http://loinc.org",
              "code": "8302-2",
              "display": "Height"
            }
          ]
        },
        "subject": {
          "reference": "Patient/Patient-1134",
          "display": "Raoul Santiago Gonzales"
        },
        "context": {
          "reference": "Encounter/Encounter-1043",
          "display": "Wellness Visit"
        },
        "effectiveDateTime": "1997-11-30T16:00:00-05:00",
        "performer": [
          {
            "reference": "Practitioner/Practitioner-2530",
            "display": "Terrence Ramirez McCormick MD"
          }
        ],
        "valueQuantity": {
          "value": 0.0,
          "unit": "cm"
        }
      },
      "request": {
        "method": "PUT",
        "url": "http://localhost:8080/cqf-ruler/baseDstu3Observation/Observation-191054"
      }
    },
    {
      "fullUrl": "http://localhost:8080/cqf-ruler/baseDstu3Observation/Observation-191055",
      "resource": {
        "resourceType": "Observation",
        "id": "Observation-191055",
        "status": "final",
        "code": {
          "coding": [
            {
              "system": "http://loinc.org",
              "code": "29463-7",
              "display": "Weight"
            }
          ]
        },
        "subject": {
          "reference": "Patient/Patient-1134",
          "display": "Raoul Santiago Gonzales"
        },
        "context": {
          "reference": "Encounter/Encounter-1043",
          "display": "Wellness Visit"
        },
        "effectiveDateTime": "1997-11-30T16:00:00-05:00",
        "performer": [
          {
            "reference": "Practitioner/Practitioner-2530",
            "display": "Terrence Ramirez McCormick MD"
          }
        ],
        "valueQuantity": {
          "value": 0.0,
          "unit": "kg"
        }
      },
      "request": {
        "method": "PUT",
        "url": "http://localhost:8080/cqf-ruler/baseDstu3Observation/Observation-191055"
      }
    },
    {
      "fullUrl": "http://localhost:8080/cqf-ruler/baseDstu3Observation/Observation-191056",
      "resource": {
        "resourceType": "Observation",
        "id": "Observation-191056",
        "status": "final",
        "code": {
          "coding": [
            {
              "system": "http://loinc.org",
              "code": "39156-5",
              "display": "BMI"
            }
          ]
        },
        "subject": {
          "reference": "Patient/Patient-1134",
          "display": "Raoul Santiago Gonzales"
        },
        "context": {
          "reference": "Encounter/Encounter-1043",
          "display": "Wellness Visit"
        },
        "effectiveDateTime": "1997-11-30T16:00:00-05:00",
        "performer": [
          {
            "reference": "Practitioner/Practitioner-2530",
            "display": "Terrence Ramirez McCormick MD"
          }
        ],
        "valueQuantity": {
          "value": 0.0,
          "unit": "kg/m2"
        }
      },
      "request": {
        "method": "PUT",
        "url": "http://localhost:8080/cqf-ruler/baseDstu3Observation/Observation-191056"
      }
    },
    {
      "fullUrl": "http://localhost:8080/cqf-ruler/baseDstu3Observation/Observation-191057",
      "resource": {
        "resourceType": "Observation",
        "id": "Observation-191057",
        "status": "final",
        "code": {
          "coding": [
            {
              "system": "http://loinc.org",
              "code": "8310-5",
              "display": "Temperature"
            }
          ]
        },
        "subject": {
          "reference": "Patient/Patient-1134",
          "display": "Raoul Santiago Gonzales"
        },
        "context": {
          "reference": "Encounter/Encounter-1043",
          "display": "Wellness Visit"
        },
        "effectiveDateTime": "1997-11-30T16:00:00-05:00",
        "performer": [
          {
            "reference": "Practitioner/Practitioner-2530",
            "display": "Terrence Ramirez McCormick MD"
          }
        ],
        "valueQuantity": {
          "value": 37.0,
          "unit": "C"
        }
      },
      "request": {
        "method": "PUT",
        "url": "http://localhost:8080/cqf-ruler/baseDstu3Observation/Observation-191057"
      }
    },
    {
      "fullUrl": "http://localhost:8080/cqf-ruler/baseDstu3Observation/Observation-191058",
      "resource": {
        "resourceType": "Observation",
        "id": "Observation-191058",
        "status": "final",
        "code": {
          "coding": [
            {
              "system": "http://loinc.org",
              "code": "8459-0",
              "display": "Systolic Blood Pressure"
            }
          ]
        },
        "subject": {
          "reference": "Patient/Patient-1134",
          "display": "Raoul Santiago Gonzales"
        },
        "context": {
          "reference": "Encounter/Encounter-1043",
          "display": "Wellness Visit"
        },
        "effectiveDateTime": "1997-11-30T16:00:00-05:00",
        "performer": [
          {
            "reference": "Practitioner/Practitioner-2530",
            "display": "Terrence Ramirez McCormick MD"
          }
        ],
        "valueQuantity": {
          "value": 120.13067237322171,
          "unit": "mmHg"
        }
      },
      "request": {
        "method": "PUT",
        "url": "http://localhost:8080/cqf-ruler/baseDstu3Observation/Observation-191058"
      }
    },
    {
      "fullUrl": "http://localhost:8080/cqf-ruler/baseDstu3Observation/Observation-191059",
      "resource": {
        "resourceType": "Observation",
        "id": "Observation-191059",
        "status": "final",
        "code": {
          "coding": [
            {
              "system": "http://loinc.org",
              "code": "8453-3",
              "display": "Diastolic Blood Pressure"
            }
          ]
        },
        "subject": {
          "reference": "Patient/Patient-1134",
          "display": "Raoul Santiago Gonzales"
        },
        "context": {
          "reference": "Encounter/Encounter-1043",
          "display": "Wellness Visit"
        },
        "effectiveDateTime": "1997-11-30T16:00:00-05:00",
        "performer": [
          {
            "reference": "Practitioner/Practitioner-2530",
            "display": "Terrence Ramirez McCormick MD"
          }
        ],
        "valueQuantity": {
          "value": 83.37580871486061,
          "unit": "mmHg"
        }
      },
      "request": {
        "method": "PUT",
        "url": "http://localhost:8080/cqf-ruler/baseDstu3Observation/Observation-191059"
      }
    },
    {
      "fullUrl": "http://localhost:8080/cqf-ruler/baseDstu3DiagnosticReport/DiagnosticReport-191053",
      "resource": {
        "resourceType": "DiagnosticReport",
        "id": "DiagnosticReport-191053",
        "status": "final",
        "code": {
          "coding": [
            {
              "system": "http://loinc.org",
              "code": "8716-3",
              "display": "Vital Signs Panel"
            }
          ]
        },
        "subject": {
          "reference": "Patient/Patient-1134",
          "display": "Raoul Santiago Gonzales"
        },
        "context": {
          "reference": "Encounter/Encounter-1043",
          "display": "Wellness Visit"
        },
        "effectivePeriod": {
          "start": "1997-11-30T16:00:00-05:00",
          "end": "1997-11-30T16:00:00-05:00"
        },
        "issued": "1997-11-30T16:00:00.000-05:00",
        "result": [
          {
            "reference": "Observation/Observation-191054",
            "display": "Height"
          },
          {
            "reference": "Observation/Observation-191055",
            "display": "Weight"
          },
          {
            "reference": "Observation/Observation-191056",
            "display": "BMI"
          },
          {
            "reference": "Observation/Observation-191057",
            "display": "Temperature"
          },
          {
            "reference": "Observation/Observation-191058",
            "display": "Systolic Blood Pressure"
          },
          {
            "reference": "Observation/Observation-191059",
            "display": "Diastolic Blood Pressure"
          }
        ]
      },
      "request": {
        "method": "PUT",
        "url": "http://localhost:8080/cqf-ruler/baseDstu3DiagnosticReport/DiagnosticReport-191053"
      }
    }
  ]
}