{
  "resourceType": "Bundle",
  "id": "Janet-Ramona-Curry-6480-Encounter-3062",
  "type": "transaction",
  "entry": [
    {
      "fullUrl": "http://localhost:8080/cqf-ruler/baseDstu3/Encounter/Encounter-3062",
      "resource": {
        "resourceType": "Encounter",
        "id": "Encounter-3062",
        "meta": {
          "profile": [
            "http://hl7.org/fhir/us/hedis/StructureDefinition/hedis-encounter"
          ]
        },
        "status": "finished",
        "class": {
          "system": "http://hl7.org/fhir/encounter-class",
          "code": "ambulatory",
          "display": "Ambulatory"
        },
        "subject": {
          "reference": "Patient/Patient-6480",
          "display": "Janet Ramona Curry"
        },
        "participant": [
          {
            "period": {
              "start": "2010-06-12T00:00:00-04:00",
              "end": "2010-06-12T00:00:00-04:00"
            },
            "individual": {
              "reference": "Practitioner/Practitioner-2516",
              "display": "Agnes Tammy Larson MD"
            }
          }
        ],
        "period": {
          "start": "2010-06-12T00:00:00-04:00",
          "end": "2010-06-12T00:00:00-04:00"
        },
        "location": [
          {
            "location": {
              "reference": "Location/Location-1002",
              "display": "Gift of Mercy Hospital"
            }
          }
        ],
        "serviceProvider": {
          "reference": "Organization/Organization-1002",
          "display": "Gift of Mercy Hospital"
        }
      },
      "request": {
        "method": "PUT",
        "url": "http://localhost:8080/cqf-ruler/baseDstu3/Encounter/Encounter-3062"
      }
    },
    {
      "fullUrl": "http://localhost:8080/cqf-ruler/baseDstu3/MedicationRequest/MedicationRequest-494260",
      "resource": {
        "resourceType": "MedicationRequest",
        "id": "MedicationRequest-494260",
        "meta": {
          "profile": [
            "http://hl7.org/fhir/us/hedis/StructureDefinition/hedis-medicationrequest"
          ]
        },
        "status": "active",
        "intent": "order",
        "medicationCodeableConcept": {
          "coding": [
            {
              "system": "http://www.nlm.nih.gov/research/umls/rxnorm",
              "code": "106892",
              "display": "insulin human, isophane 70 UNT/ML / Regular Insulin, Human 30 UNT/ML Injectable Suspension [Humulin]"
            }
          ]
        },
        "subject": {
          "reference": "Patient/Patient-6480",
          "display": "Janet Ramona Curry"
        },
        "context": {
          "reference": "Encounter/Encounter-3062",
          "display": "Followup_Visit"
        },
        "authoredOn": "2010-06-12T00:00:00-04:00",
        "reasonCode": [
          {
            "coding": [
              {
                "system": "http://snomed.info/sct",
                "code": "44054006",
                "display": "Type 2 diabetes mellitus"
              }
            ]
          }
        ],
        "dosageInstruction": [
          {
            "timing": {
              "repeat": {
                "frequency": 1
              }
            },
            "doseQuantity": {
              "value": 1
            }
          }
        ],
        "dispenseRequest": {
          "validityPeriod": {
            "start": "2010-06-12T00:00:00-04:00",
            "end": "2010-06-12T00:00:00-04:00"
          }
        }
      },
      "request": {
        "method": "PUT",
        "url": "http://localhost:8080/cqf-ruler/baseDstu3/MedicationRequest/MedicationRequest-494260"
      }
    },
    {
      "fullUrl": "http://localhost:8080/cqf-ruler/baseDstu3/MedicationRequest/MedicationRequest-494261",
      "resource": {
        "resourceType": "MedicationRequest",
        "id": "MedicationRequest-494261",
        "meta": {
          "profile": [
            "http://hl7.org/fhir/us/hedis/StructureDefinition/hedis-medicationrequest"
          ]
        },
        "status": "active",
        "intent": "order",
        "medicationCodeableConcept": {
          "coding": [
            {
              "system": "http://www.nlm.nih.gov/research/umls/rxnorm",
              "code": "897122",
              "display": "3 ML liraglutide 6 MG/ML Pen Injector"
            }
          ]
        },
        "subject": {
          "reference": "Patient/Patient-6480",
          "display": "Janet Ramona Curry"
        },
        "context": {
          "reference": "Encounter/Encounter-3062",
          "display": "Followup_Visit"
        },
        "authoredOn": "2010-06-12T00:00:00-04:00",
        "reasonCode": [
          {
            "coding": [
              {
                "system": "http://snomed.info/sct",
                "code": "44054006",
                "display": "Type 2 diabetes mellitus"
              }
            ]
          }
        ],
        "dispenseRequest": {
          "validityPeriod": {
            "start": "2010-06-12T00:00:00-04:00",
            "end": "2010-06-12T00:00:00-04:00"
          }
        }
      },
      "request": {
        "method": "PUT",
        "url": "http://localhost:8080/cqf-ruler/baseDstu3/MedicationRequest/MedicationRequest-494261"
      }
    },
    {
      "fullUrl": "http://localhost:8080/cqf-ruler/baseDstu3/Observation/Observation-494264",
      "resource": {
        "resourceType": "Observation",
        "id": "Observation-494264",
        "status": "final",
        "code": {
          "coding": [
            {
              "system": "http://loinc.org",
              "code": "8302-2",
              "display": "Height"
            }
          ]
        },
        "subject": {
          "reference": "Patient/Patient-6480",
          "display": "Janet Ramona Curry"
        },
        "context": {
          "reference": "Encounter/Encounter-3062",
          "display": "Followup_Visit"
        },
        "effectiveDateTime": "2010-06-12T00:00:00-04:00",
        "performer": [
          {
            "reference": "Practitioner/Practitioner-2516",
            "display": "Agnes Tammy Larson MD"
          }
        ],
        "valueQuantity": {
          "value": 163.3,
          "unit": "cm"
        }
      },
      "request": {
        "method": "PUT",
        "url": "http://localhost:8080/cqf-ruler/baseDstu3/Observation/Observation-494264"
      }
    },
    {
      "fullUrl": "http://localhost:8080/cqf-ruler/baseDstu3/Observation/Observation-494265",
      "resource": {
        "resourceType": "Observation",
        "id": "Observation-494265",
        "status": "final",
        "code": {
          "coding": [
            {
              "system": "http://loinc.org",
              "code": "29463-7",
              "display": "Weight"
            }
          ]
        },
        "subject": {
          "reference": "Patient/Patient-6480",
          "display": "Janet Ramona Curry"
        },
        "context": {
          "reference": "Encounter/Encounter-3062",
          "display": "Followup_Visit"
        },
        "effectiveDateTime": "2010-06-12T00:00:00-04:00",
        "performer": [
          {
            "reference": "Practitioner/Practitioner-2516",
            "display": "Agnes Tammy Larson MD"
          }
        ],
        "valueQuantity": {
          "value": 94.34428673267233,
          "unit": "kg"
        }
      },
      "request": {
        "method": "PUT",
        "url": "http://localhost:8080/cqf-ruler/baseDstu3/Observation/Observation-494265"
      }
    },
    {
      "fullUrl": "http://localhost:8080/cqf-ruler/baseDstu3/Observation/Observation-494266",
      "resource": {
        "resourceType": "Observation",
        "id": "Observation-494266",
        "status": "final",
        "code": {
          "coding": [
            {
              "system": "http://loinc.org",
              "code": "39156-5",
              "display": "BMI"
            }
          ]
        },
        "subject": {
          "reference": "Patient/Patient-6480",
          "display": "Janet Ramona Curry"
        },
        "context": {
          "reference": "Encounter/Encounter-3062",
          "display": "Followup_Visit"
        },
        "effectiveDateTime": "2010-06-12T00:00:00-04:00",
        "performer": [
          {
            "reference": "Practitioner/Practitioner-2516",
            "display": "Agnes Tammy Larson MD"
          }
        ],
        "valueQuantity": {
          "value": 35.3788112272081,
          "unit": "kg/m2"
        }
      },
      "request": {
        "method": "PUT",
        "url": "http://localhost:8080/cqf-ruler/baseDstu3/Observation/Observation-494266"
      }
    },
    {
      "fullUrl": "http://localhost:8080/cqf-ruler/baseDstu3/Observation/Observation-494267",
      "resource": {
        "resourceType": "Observation",
        "id": "Observation-494267",
        "status": "final",
        "code": {
          "coding": [
            {
              "system": "http://loinc.org",
              "code": "8310-5",
              "display": "Temperature"
            }
          ]
        },
        "subject": {
          "reference": "Patient/Patient-6480",
          "display": "Janet Ramona Curry"
        },
        "context": {
          "reference": "Encounter/Encounter-3062",
          "display": "Followup_Visit"
        },
        "effectiveDateTime": "2010-06-12T00:00:00-04:00",
        "performer": [
          {
            "reference": "Practitioner/Practitioner-2516",
            "display": "Agnes Tammy Larson MD"
          }
        ],
        "valueQuantity": {
          "value": 37.0,
          "unit": "C"
        }
      },
      "request": {
        "method": "PUT",
        "url": "http://localhost:8080/cqf-ruler/baseDstu3/Observation/Observation-494267"
      }
    },
    {
      "fullUrl": "http://localhost:8080/cqf-ruler/baseDstu3/Observation/Observation-494268",
      "resource": {
        "resourceType": "Observation",
        "id": "Observation-494268",
        "status": "final",
        "code": {
          "coding": [
            {
              "system": "http://loinc.org",
              "code": "8459-0",
              "display": "Systolic Blood Pressure"
            }
          ]
        },
        "subject": {
          "reference": "Patient/Patient-6480",
          "display": "Janet Ramona Curry"
        },
        "context": {
          "reference": "Encounter/Encounter-3062",
          "display": "Followup_Visit"
        },
        "effectiveDateTime": "2010-06-12T00:00:00-04:00",
        "performer": [
          {
            "reference": "Practitioner/Practitioner-2516",
            "display": "Agnes Tammy Larson MD"
          }
        ],
        "valueQuantity": {
          "value": 120.12060832483498,
          "unit": "mmHg"
        }
      },
      "request": {
        "method": "PUT",
        "url": "http://localhost:8080/cqf-ruler/baseDstu3/Observation/Observation-494268"
      }
    },
    {
      "fullUrl": "http://localhost:8080/cqf-ruler/baseDstu3/Observation/Observation-494269",
      "resource": {
        "resourceType": "Observation",
        "id": "Observation-494269",
        "status": "final",
        "code": {
          "coding": [
            {
              "system": "http://loinc.org",
              "code": "8453-3",
              "display": "Diastolic Blood Pressure"
            }
          ]
        },
        "subject": {
          "reference": "Patient/Patient-6480",
          "display": "Janet Ramona Curry"
        },
        "context": {
          "reference": "Encounter/Encounter-3062",
          "display": "Followup_Visit"
        },
        "effectiveDateTime": "2010-06-12T00:00:00-04:00",
        "performer": [
          {
            "reference": "Practitioner/Practitioner-2516",
            "display": "Agnes Tammy Larson MD"
          }
        ],
        "valueQuantity": {
          "value": 107.10498766699081,
          "unit": "mmHg"
        }
      },
      "request": {
        "method": "PUT",
        "url": "http://localhost:8080/cqf-ruler/baseDstu3/Observation/Observation-494269"
      }
    },
    {
      "fullUrl": "http://localhost:8080/cqf-ruler/baseDstu3/DiagnosticReport/DiagnosticReport-494263",
      "resource": {
        "resourceType": "DiagnosticReport",
        "id": "DiagnosticReport-494263",
        "meta": {
          "profile": [
            "http://hl7.org/fhir/us/hedis/StructureDefinition/hedis-diagnosticreport"
          ]
        },
        "status": "final",
        "category": {
          "coding": [
            {
              "system": "http://hl7.org/fhir/ValueSet/diagnostic-service-sections",
              "code": "LAB",
              "display": "Laboratory"
            }
          ]
        },
        "code": {
          "coding": [
            {
              "system": "http://loinc.org",
              "code": "8716-3",
              "display": "Vital Signs Panel"
            }
          ]
        },
        "subject": {
          "reference": "Patient/Patient-6480",
          "display": "Janet Ramona Curry"
        },
        "context": {
          "reference": "Encounter/Encounter-3062",
          "display": "Followup_Visit"
        },
        "effectivePeriod": {
          "start": "2010-06-12T00:00:00-04:00",
          "end": "2010-06-12T00:00:00-04:00"
        },
        "issued": "2010-06-12T00:00:00.000-04:00",
        "result": [
          {
            "reference": "Observation/Observation-494264",
            "display": "Height"
          },
          {
            "reference": "Observation/Observation-494265",
            "display": "Weight"
          },
          {
            "reference": "Observation/Observation-494266",
            "display": "BMI"
          },
          {
            "reference": "Observation/Observation-494267",
            "display": "Temperature"
          },
          {
            "reference": "Observation/Observation-494268",
            "display": "Systolic Blood Pressure"
          },
          {
            "reference": "Observation/Observation-494269",
            "display": "Diastolic Blood Pressure"
          }
        ]
      },
      "request": {
        "method": "PUT",
        "url": "http://localhost:8080/cqf-ruler/baseDstu3/DiagnosticReport/DiagnosticReport-494263"
      }
    }
  ]
}