{
  "resourceType": "Bundle",
  "id": "Janet-Ramona-Curry-6480-Encounter-3753",
  "type": "transaction",
  "entry": [
    {
      "fullUrl": "http://localhost:8080/cqf-ruler/baseDstu3/Encounter/Encounter-3753",
      "resource": {
        "resourceType": "Encounter",
        "id": "Encounter-3753",
        "meta": {
          "profile": [
            "http://hl7.org/fhir/us/hedis/StructureDefinition/hedis-encounter"
          ]
        },
        "status": "finished",
        "class": {
          "system": "http://hl7.org/fhir/encounter-class",
          "code": "ambulatory",
          "display": "Ambulatory"
        },
        "subject": {
          "reference": "Patient/Patient-6480",
          "display": "Janet Ramona Curry"
        },
        "participant": [
          {
            "period": {
              "start": "2013-03-22T00:00:00-04:00",
              "end": "2013-03-22T00:00:00-04:00"
            },
            "individual": {
              "reference": "Practitioner/Practitioner-2528",
              "display": "Tanya Sally Wheeler MD"
            }
          }
        ],
        "period": {
          "start": "2013-03-22T00:00:00-04:00",
          "end": "2013-03-22T00:00:00-04:00"
        },
        "location": [
          {
            "location": {
              "reference": "Location/Location-1002",
              "display": "Gift of Mercy Hospital"
            }
          }
        ],
        "serviceProvider": {
          "reference": "Organization/Organization-1002",
          "display": "Gift of Mercy Hospital"
        }
      },
      "request": {
        "method": "PUT",
        "url": "http://localhost:8080/cqf-ruler/baseDstu3/Encounter/Encounter-3753"
      }
    },
    {
      "fullUrl": "http://localhost:8080/cqf-ruler/baseDstu3/Procedure/Procedure-569955",
      "resource": {
        "resourceType": "Procedure",
        "id": "Procedure-569955",
        "meta": {
          "profile": [
            "http://hl7.org/fhir/us/hedis/StructureDefinition/hedis-procedure"
          ]
        },
        "status": "completed",
        "code": {
          "coding": [
            {
              "system": "TEST",
              "code": "2.16.840.1.113883.3.67.1.101.11.723",
              "display": "PHQ-9 Tool"
            }
          ]
        },
        "subject": {
          "reference": "Patient/Patient-6480",
          "display": "Janet Ramona Curry"
        },
        "context": {
          "reference": "Encounter/Encounter-3753",
          "display": "Followup_Encounter"
        },
        "performedPeriod": {
          "start": "2013-03-22T00:00:00-04:00",
          "end": "2013-03-22T00:00:00-04:00"
        },
        "performer": [
          {
            "actor": {
              "reference": "Practitioner/Practitioner-2528",
              "display": "Tanya Sally Wheeler MD"
            }
          }
        ],
        "location": {
          "reference": "Location/Location-1002",
          "display": "Gift of Mercy Hospital"
        }
      },
      "request": {
        "method": "PUT",
        "url": "http://localhost:8080/cqf-ruler/baseDstu3/Procedure/Procedure-569955"
      }
    },
    {
      "fullUrl": "http://localhost:8080/cqf-ruler/baseDstu3/Observation/Observation-569956",
      "resource": {
        "resourceType": "Observation",
        "id": "Observation-569956",
        "meta": {
          "profile": [
            "http://hl7.org/fhir/us/hedis/StructureDefinition/hedis-observation"
          ]
        },
        "status": "final",
        "code": {
          "coding": [
            {
              "system": "TEST",
              "code": "2.16.840.1.113883.3.464.1003.105.12.1154",
              "display": "PHQ-9 Modified Score"
            }
          ]
        },
        "subject": {
          "reference": "Patient/Patient-6480",
          "display": "Janet Ramona Curry"
        },
        "context": {
          "reference": "Encounter/Encounter-3753",
          "display": "Followup_Encounter"
        },
        "effectiveDateTime": "2013-03-22T00:00:00-04:00",
        "performer": [
          {
            "reference": "Practitioner/Practitioner-2528",
            "display": "Tanya Sally Wheeler MD"
          }
        ],
        "valueQuantity": {
          "value": 5.0,
          "unit": "score"
        }
      },
      "request": {
        "method": "PUT",
        "url": "http://localhost:8080/cqf-ruler/baseDstu3/Observation/Observation-569956"
      }
    },
    {
      "fullUrl": "http://localhost:8080/cqf-ruler/baseDstu3/Observation/Observation-569959",
      "resource": {
        "resourceType": "Observation",
        "id": "Observation-569959",
        "status": "final",
        "code": {
          "coding": [
            {
              "system": "http://loinc.org",
              "code": "8302-2",
              "display": "Height"
            }
          ]
        },
        "subject": {
          "reference": "Patient/Patient-6480",
          "display": "Janet Ramona Curry"
        },
        "context": {
          "reference": "Encounter/Encounter-3753",
          "display": "Followup_Encounter"
        },
        "effectiveDateTime": "2013-03-22T00:00:00-04:00",
        "performer": [
          {
            "reference": "Practitioner/Practitioner-2528",
            "display": "Tanya Sally Wheeler MD"
          }
        ],
        "valueQuantity": {
          "value": 163.3,
          "unit": "cm"
        }
      },
      "request": {
        "method": "PUT",
        "url": "http://localhost:8080/cqf-ruler/baseDstu3/Observation/Observation-569959"
      }
    },
    {
      "fullUrl": "http://localhost:8080/cqf-ruler/baseDstu3/Observation/Observation-569960",
      "resource": {
        "resourceType": "Observation",
        "id": "Observation-569960",
        "status": "final",
        "code": {
          "coding": [
            {
              "system": "http://loinc.org",
              "code": "29463-7",
              "display": "Weight"
            }
          ]
        },
        "subject": {
          "reference": "Patient/Patient-6480",
          "display": "Janet Ramona Curry"
        },
        "context": {
          "reference": "Encounter/Encounter-3753",
          "display": "Followup_Encounter"
        },
        "effectiveDateTime": "2013-03-22T00:00:00-04:00",
        "performer": [
          {
            "reference": "Practitioner/Practitioner-2528",
            "display": "Tanya Sally Wheeler MD"
          }
        ],
        "valueQuantity": {
          "value": 94.7882284852015,
          "unit": "kg"
        }
      },
      "request": {
        "method": "PUT",
        "url": "http://localhost:8080/cqf-ruler/baseDstu3/Observation/Observation-569960"
      }
    },
    {
      "fullUrl": "http://localhost:8080/cqf-ruler/baseDstu3/Observation/Observation-569961",
      "resource": {
        "resourceType": "Observation",
        "id": "Observation-569961",
        "status": "final",
        "code": {
          "coding": [
            {
              "system": "http://loinc.org",
              "code": "39156-5",
              "display": "BMI"
            }
          ]
        },
        "subject": {
          "reference": "Patient/Patient-6480",
          "display": "Janet Ramona Curry"
        },
        "context": {
          "reference": "Encounter/Encounter-3753",
          "display": "Followup_Encounter"
        },
        "effectiveDateTime": "2013-03-22T00:00:00-04:00",
        "performer": [
          {
            "reference": "Practitioner/Practitioner-2528",
            "display": "Tanya Sally Wheeler MD"
          }
        ],
        "valueQuantity": {
          "value": 35.545287990163644,
          "unit": "kg/m2"
        }
      },
      "request": {
        "method": "PUT",
        "url": "http://localhost:8080/cqf-ruler/baseDstu3/Observation/Observation-569961"
      }
    },
    {
      "fullUrl": "http://localhost:8080/cqf-ruler/baseDstu3/Observation/Observation-569962",
      "resource": {
        "resourceType": "Observation",
        "id": "Observation-569962",
        "status": "final",
        "code": {
          "coding": [
            {
              "system": "http://loinc.org",
              "code": "8310-5",
              "display": "Temperature"
            }
          ]
        },
        "subject": {
          "reference": "Patient/Patient-6480",
          "display": "Janet Ramona Curry"
        },
        "context": {
          "reference": "Encounter/Encounter-3753",
          "display": "Followup_Encounter"
        },
        "effectiveDateTime": "2013-03-22T00:00:00-04:00",
        "performer": [
          {
            "reference": "Practitioner/Practitioner-2528",
            "display": "Tanya Sally Wheeler MD"
          }
        ],
        "valueQuantity": {
          "value": 37.0,
          "unit": "C"
        }
      },
      "request": {
        "method": "PUT",
        "url": "http://localhost:8080/cqf-ruler/baseDstu3/Observation/Observation-569962"
      }
    },
    {
      "fullUrl": "http://localhost:8080/cqf-ruler/baseDstu3/Observation/Observation-569963",
      "resource": {
        "resourceType": "Observation",
        "id": "Observation-569963",
        "status": "final",
        "code": {
          "coding": [
            {
              "system": "http://loinc.org",
              "code": "8459-0",
              "display": "Systolic Blood Pressure"
            }
          ]
        },
        "subject": {
          "reference": "Patient/Patient-6480",
          "display": "Janet Ramona Curry"
        },
        "context": {
          "reference": "Encounter/Encounter-3753",
          "display": "Followup_Encounter"
        },
        "effectiveDateTime": "2013-03-22T00:00:00-04:00",
        "performer": [
          {
            "reference": "Practitioner/Practitioner-2528",
            "display": "Tanya Sally Wheeler MD"
          }
        ],
        "valueQuantity": {
          "value": 136.40697376187057,
          "unit": "mmHg"
        }
      },
      "request": {
        "method": "PUT",
        "url": "http://localhost:8080/cqf-ruler/baseDstu3/Observation/Observation-569963"
      }
    },
    {
      "fullUrl": "http://localhost:8080/cqf-ruler/baseDstu3/Observation/Observation-569964",
      "resource": {
        "resourceType": "Observation",
        "id": "Observation-569964",
        "status": "final",
        "code": {
          "coding": [
            {
              "system": "http://loinc.org",
              "code": "8453-3",
              "display": "Diastolic Blood Pressure"
            }
          ]
        },
        "subject": {
          "reference": "Patient/Patient-6480",
          "display": "Janet Ramona Curry"
        },
        "context": {
          "reference": "Encounter/Encounter-3753",
          "display": "Followup_Encounter"
        },
        "effectiveDateTime": "2013-03-22T00:00:00-04:00",
        "performer": [
          {
            "reference": "Practitioner/Practitioner-2528",
            "display": "Tanya Sally Wheeler MD"
          }
        ],
        "valueQuantity": {
          "value": 96.92770069245958,
          "unit": "mmHg"
        }
      },
      "request": {
        "method": "PUT",
        "url": "http://localhost:8080/cqf-ruler/baseDstu3/Observation/Observation-569964"
      }
    },
    {
      "fullUrl": "http://localhost:8080/cqf-ruler/baseDstu3/DiagnosticReport/DiagnosticReport-569958",
      "resource": {
        "resourceType": "DiagnosticReport",
        "id": "DiagnosticReport-569958",
        "meta": {
          "profile": [
            "http://hl7.org/fhir/us/hedis/StructureDefinition/hedis-diagnosticreport"
          ]
        },
        "status": "final",
        "category": {
          "coding": [
            {
              "system": "http://hl7.org/fhir/ValueSet/diagnostic-service-sections",
              "code": "LAB",
              "display": "Laboratory"
            }
          ]
        },
        "code": {
          "coding": [
            {
              "system": "http://loinc.org",
              "code": "8716-3",
              "display": "Vital Signs Panel"
            }
          ]
        },
        "subject": {
          "reference": "Patient/Patient-6480",
          "display": "Janet Ramona Curry"
        },
        "context": {
          "reference": "Encounter/Encounter-3753",
          "display": "Followup_Encounter"
        },
        "effectivePeriod": {
          "start": "2013-03-22T00:00:00-04:00",
          "end": "2013-03-22T00:00:00-04:00"
        },
        "issued": "2013-03-22T00:00:00.000-04:00",
        "result": [
          {
            "reference": "Observation/Observation-569959",
            "display": "Height"
          },
          {
            "reference": "Observation/Observation-569960",
            "display": "Weight"
          },
          {
            "reference": "Observation/Observation-569961",
            "display": "BMI"
          },
          {
            "reference": "Observation/Observation-569962",
            "display": "Temperature"
          },
          {
            "reference": "Observation/Observation-569963",
            "display": "Systolic Blood Pressure"
          },
          {
            "reference": "Observation/Observation-569964",
            "display": "Diastolic Blood Pressure"
          }
        ]
      },
      "request": {
        "method": "PUT",
        "url": "http://localhost:8080/cqf-ruler/baseDstu3/DiagnosticReport/DiagnosticReport-569958"
      }
    }
  ]
}