{
  "resourceType": "Bundle",
  "id": "Janet-Ramona-Curry-6480-Encounter-4203",
  "type": "transaction",
  "entry": [
    {
      "fullUrl": "http://localhost:8080/cqf-ruler/baseDstu3/Encounter/Encounter-4203",
      "resource": {
        "resourceType": "Encounter",
        "id": "Encounter-4203",
        "meta": {
          "profile": [
            "http://hl7.org/fhir/us/hedis/StructureDefinition/hedis-encounter"
          ]
        },
        "status": "finished",
        "class": {
          "system": "http://hl7.org/fhir/encounter-class",
          "code": "ambulatory",
          "display": "Ambulatory"
        },
        "subject": {
          "reference": "Patient/Patient-6480",
          "display": "Janet Ramona Curry"
        },
        "participant": [
          {
            "period": {
              "start": "2014-12-11T23:00:00-05:00",
              "end": "2014-12-11T23:00:00-05:00"
            },
            "individual": {
              "reference": "Practitioner/Practitioner-2527",
              "display": "Lee Chris Mejia MD"
            }
          }
        ],
        "period": {
          "start": "2014-12-11T23:00:00-05:00",
          "end": "2014-12-11T23:00:00-05:00"
        },
        "location": [
          {
            "location": {
              "reference": "Location/Location-1002",
              "display": "Gift of Mercy Hospital"
            }
          }
        ],
        "serviceProvider": {
          "reference": "Organization/Organization-1002",
          "display": "Gift of Mercy Hospital"
        }
      },
      "request": {
        "method": "PUT",
        "url": "http://localhost:8080/cqf-ruler/baseDstu3/Encounter/Encounter-4203"
      }
    },
    {
      "fullUrl": "http://localhost:8080/cqf-ruler/baseDstu3/Procedure/Procedure-619767",
      "resource": {
        "resourceType": "Procedure",
        "id": "Procedure-619767",
        "meta": {
          "profile": [
            "http://hl7.org/fhir/us/hedis/StructureDefinition/hedis-procedure"
          ]
        },
        "status": "completed",
        "code": {
          "coding": [
            {
              "system": "TEST",
              "code": "2.16.840.1.113883.3.67.1.101.11.723",
              "display": "PHQ-9 Tool"
            }
          ]
        },
        "subject": {
          "reference": "Patient/Patient-6480",
          "display": "Janet Ramona Curry"
        },
        "context": {
          "reference": "Encounter/Encounter-4203",
          "display": "Followup_Encounter"
        },
        "performedPeriod": {
          "start": "2014-12-11T23:00:00-05:00",
          "end": "2014-12-11T23:00:00-05:00"
        },
        "performer": [
          {
            "actor": {
              "reference": "Practitioner/Practitioner-2527",
              "display": "Lee Chris Mejia MD"
            }
          }
        ],
        "location": {
          "reference": "Location/Location-1002",
          "display": "Gift of Mercy Hospital"
        }
      },
      "request": {
        "method": "PUT",
        "url": "http://localhost:8080/cqf-ruler/baseDstu3/Procedure/Procedure-619767"
      }
    },
    {
      "fullUrl": "http://localhost:8080/cqf-ruler/baseDstu3/Observation/Observation-619768",
      "resource": {
        "resourceType": "Observation",
        "id": "Observation-619768",
        "meta": {
          "profile": [
            "http://hl7.org/fhir/us/hedis/StructureDefinition/hedis-observation"
          ]
        },
        "status": "final",
        "code": {
          "coding": [
            {
              "system": "TEST",
              "code": "2.16.840.1.113883.3.464.1003.105.12.1154",
              "display": "PHQ-9 Modified Score"
            }
          ]
        },
        "subject": {
          "reference": "Patient/Patient-6480",
          "display": "Janet Ramona Curry"
        },
        "context": {
          "reference": "Encounter/Encounter-4203",
          "display": "Followup_Encounter"
        },
        "effectiveDateTime": "2014-12-11T23:00:00-05:00",
        "performer": [
          {
            "reference": "Practitioner/Practitioner-2527",
            "display": "Lee Chris Mejia MD"
          }
        ],
        "valueQuantity": {
          "value": 10.0,
          "unit": "score"
        }
      },
      "request": {
        "method": "PUT",
        "url": "http://localhost:8080/cqf-ruler/baseDstu3/Observation/Observation-619768"
      }
    },
    {
      "fullUrl": "http://localhost:8080/cqf-ruler/baseDstu3/Observation/Observation-619771",
      "resource": {
        "resourceType": "Observation",
        "id": "Observation-619771",
        "status": "final",
        "code": {
          "coding": [
            {
              "system": "http://loinc.org",
              "code": "8302-2",
              "display": "Height"
            }
          ]
        },
        "subject": {
          "reference": "Patient/Patient-6480",
          "display": "Janet Ramona Curry"
        },
        "context": {
          "reference": "Encounter/Encounter-4203",
          "display": "Followup_Encounter"
        },
        "effectiveDateTime": "2014-12-11T23:00:00-05:00",
        "performer": [
          {
            "reference": "Practitioner/Practitioner-2527",
            "display": "Lee Chris Mejia MD"
          }
        ],
        "valueQuantity": {
          "value": 163.3,
          "unit": "cm"
        }
      },
      "request": {
        "method": "PUT",
        "url": "http://localhost:8080/cqf-ruler/baseDstu3/Observation/Observation-619771"
      }
    },
    {
      "fullUrl": "http://localhost:8080/cqf-ruler/baseDstu3/Observation/Observation-619772",
      "resource": {
        "resourceType": "Observation",
        "id": "Observation-619772",
        "status": "final",
        "code": {
          "coding": [
            {
              "system": "http://loinc.org",
              "code": "29463-7",
              "display": "Weight"
            }
          ]
        },
        "subject": {
          "reference": "Patient/Patient-6480",
          "display": "Janet Ramona Curry"
        },
        "context": {
          "reference": "Encounter/Encounter-4203",
          "display": "Followup_Encounter"
        },
        "effectiveDateTime": "2014-12-11T23:00:00-05:00",
        "performer": [
          {
            "reference": "Practitioner/Practitioner-2527",
            "display": "Lee Chris Mejia MD"
          }
        ],
        "valueQuantity": {
          "value": 95.23163067870745,
          "unit": "kg"
        }
      },
      "request": {
        "method": "PUT",
        "url": "http://localhost:8080/cqf-ruler/baseDstu3/Observation/Observation-619772"
      }
    },
    {
      "fullUrl": "http://localhost:8080/cqf-ruler/baseDstu3/Observation/Observation-619773",
      "resource": {
        "resourceType": "Observation",
        "id": "Observation-619773",
        "status": "final",
        "code": {
          "coding": [
            {
              "system": "http://loinc.org",
              "code": "39156-5",
              "display": "BMI"
            }
          ]
        },
        "subject": {
          "reference": "Patient/Patient-6480",
          "display": "Janet Ramona Curry"
        },
        "context": {
          "reference": "Encounter/Encounter-4203",
          "display": "Followup_Encounter"
        },
        "effectiveDateTime": "2014-12-11T23:00:00-05:00",
        "performer": [
          {
            "reference": "Practitioner/Practitioner-2527",
            "display": "Lee Chris Mejia MD"
          }
        ],
        "valueQuantity": {
          "value": 35.71156242018002,
          "unit": "kg/m2"
        }
      },
      "request": {
        "method": "PUT",
        "url": "http://localhost:8080/cqf-ruler/baseDstu3/Observation/Observation-619773"
      }
    },
    {
      "fullUrl": "http://localhost:8080/cqf-ruler/baseDstu3/Observation/Observation-619774",
      "resource": {
        "resourceType": "Observation",
        "id": "Observation-619774",
        "status": "final",
        "code": {
          "coding": [
            {
              "system": "http://loinc.org",
              "code": "8310-5",
              "display": "Temperature"
            }
          ]
        },
        "subject": {
          "reference": "Patient/Patient-6480",
          "display": "Janet Ramona Curry"
        },
        "context": {
          "reference": "Encounter/Encounter-4203",
          "display": "Followup_Encounter"
        },
        "effectiveDateTime": "2014-12-11T23:00:00-05:00",
        "performer": [
          {
            "reference": "Practitioner/Practitioner-2527",
            "display": "Lee Chris Mejia MD"
          }
        ],
        "valueQuantity": {
          "value": 37.0,
          "unit": "C"
        }
      },
      "request": {
        "method": "PUT",
        "url": "http://localhost:8080/cqf-ruler/baseDstu3/Observation/Observation-619774"
      }
    },
    {
      "fullUrl": "http://localhost:8080/cqf-ruler/baseDstu3/Observation/Observation-619775",
      "resource": {
        "resourceType": "Observation",
        "id": "Observation-619775",
        "status": "final",
        "code": {
          "coding": [
            {
              "system": "http://loinc.org",
              "code": "8459-0",
              "display": "Systolic Blood Pressure"
            }
          ]
        },
        "subject": {
          "reference": "Patient/Patient-6480",
          "display": "Janet Ramona Curry"
        },
        "context": {
          "reference": "Encounter/Encounter-4203",
          "display": "Followup_Encounter"
        },
        "effectiveDateTime": "2014-12-11T23:00:00-05:00",
        "performer": [
          {
            "reference": "Practitioner/Practitioner-2527",
            "display": "Lee Chris Mejia MD"
          }
        ],
        "valueQuantity": {
          "value": 103.44701099112169,
          "unit": "mmHg"
        }
      },
      "request": {
        "method": "PUT",
        "url": "http://localhost:8080/cqf-ruler/baseDstu3/Observation/Observation-619775"
      }
    },
    {
      "fullUrl": "http://localhost:8080/cqf-ruler/baseDstu3/Observation/Observation-619776",
      "resource": {
        "resourceType": "Observation",
        "id": "Observation-619776",
        "status": "final",
        "code": {
          "coding": [
            {
              "system": "http://loinc.org",
              "code": "8453-3",
              "display": "Diastolic Blood Pressure"
            }
          ]
        },
        "subject": {
          "reference": "Patient/Patient-6480",
          "display": "Janet Ramona Curry"
        },
        "context": {
          "reference": "Encounter/Encounter-4203",
          "display": "Followup_Encounter"
        },
        "effectiveDateTime": "2014-12-11T23:00:00-05:00",
        "performer": [
          {
            "reference": "Practitioner/Practitioner-2527",
            "display": "Lee Chris Mejia MD"
          }
        ],
        "valueQuantity": {
          "value": 105.3899923354946,
          "unit": "mmHg"
        }
      },
      "request": {
        "method": "PUT",
        "url": "http://localhost:8080/cqf-ruler/baseDstu3/Observation/Observation-619776"
      }
    },
    {
      "fullUrl": "http://localhost:8080/cqf-ruler/baseDstu3/DiagnosticReport/DiagnosticReport-619770",
      "resource": {
        "resourceType": "DiagnosticReport",
        "id": "DiagnosticReport-619770",
        "meta": {
          "profile": [
            "http://hl7.org/fhir/us/hedis/StructureDefinition/hedis-diagnosticreport"
          ]
        },
        "status": "final",
        "category": {
          "coding": [
            {
              "system": "http://hl7.org/fhir/ValueSet/diagnostic-service-sections",
              "code": "LAB",
              "display": "Laboratory"
            }
          ]
        },
        "code": {
          "coding": [
            {
              "system": "http://loinc.org",
              "code": "8716-3",
              "display": "Vital Signs Panel"
            }
          ]
        },
        "subject": {
          "reference": "Patient/Patient-6480",
          "display": "Janet Ramona Curry"
        },
        "context": {
          "reference": "Encounter/Encounter-4203",
          "display": "Followup_Encounter"
        },
        "effectivePeriod": {
          "start": "2014-12-11T23:00:00-05:00",
          "end": "2014-12-11T23:00:00-05:00"
        },
        "issued": "2014-12-11T23:00:00.000-05:00",
        "result": [
          {
            "reference": "Observation/Observation-619771",
            "display": "Height"
          },
          {
            "reference": "Observation/Observation-619772",
            "display": "Weight"
          },
          {
            "reference": "Observation/Observation-619773",
            "display": "BMI"
          },
          {
            "reference": "Observation/Observation-619774",
            "display": "Temperature"
          },
          {
            "reference": "Observation/Observation-619775",
            "display": "Systolic Blood Pressure"
          },
          {
            "reference": "Observation/Observation-619776",
            "display": "Diastolic Blood Pressure"
          }
        ]
      },
      "request": {
        "method": "PUT",
        "url": "http://localhost:8080/cqf-ruler/baseDstu3/DiagnosticReport/DiagnosticReport-619770"
      }
    }
  ]
}