{
  "resourceType": "Bundle",
  "id": "Tricia-Lynn-Franklin-1119-Encounter-922",
  "type": "transaction",
  "entry": [
    {
      "fullUrl": "http://localhost:8080/cqf-ruler/baseDstu3Encounter/Encounter-922",
      "resource": {
        "resourceType": "Encounter",
        "id": "Encounter-922",
        "status": "finished",
        "class": {
          "system": "http://hl7.org/fhir/encounter-class",
          "code": "outpatient",
          "display": "Inpatient"
        },
        "subject": {
          "reference": "Patient/Patient-1119",
          "display": "Tricia Lynn Franklin"
        },
        "participant": [
          {
            "period": {
              "start": "1997-03-02T12:00:00-05:00",
              "end": "1997-03-02T12:00:00-05:00"
            },
            "individual": {
              "reference": "Practitioner/Practitioner-2516",
              "display": "Agnes Tammy Larson MD"
            }
          }
        ],
        "period": {
          "start": "1997-03-02T12:00:00-05:00",
          "end": "1997-03-02T12:00:00-05:00"
        },
        "location": [
          {
            "location": {
              "reference": "Location/Location-1101",
              "display": "McKinley Health Center"
            }
          }
        ],
        "serviceProvider": {
          "reference": "Organization/Organization-1101",
          "display": "McKinley Health Center"
        }
      },
      "request": {
        "method": "PUT",
        "url": "http://localhost:8080/cqf-ruler/baseDstu3Encounter/Encounter-922"
      }
    },
    {
      "fullUrl": "http://localhost:8080/cqf-ruler/baseDstu3Immunization/Immunization-156574",
      "resource": {
        "resourceType": "Immunization",
        "id": "Immunization-156574",
        "status": "completed",
        "notGiven": false,
        "vaccineCode": {
          "coding": [
            {
              "system": "http://hl7.org/fhir/sid/cvx",
              "code": "140",
              "display": "Influenza, seasonal, injectable, preservative free"
            }
          ]
        },
        "patient": {
          "reference": "Patient/Patient-1119",
          "display": "Tricia Lynn Franklin"
        },
        "date": "1997-03-02T12:00:00-05:00",
        "primarySource": true,
        "location": {
          "reference": "Location/Location-1101",
          "display": "McKinley Health Center"
        },
        "practitioner": [
          {
            "actor": {
              "reference": "Practitioner/Practitioner-2516",
              "display": "Agnes Tammy Larson MD"
            }
          }
        ]
      },
      "request": {
        "method": "PUT",
        "url": "http://localhost:8080/cqf-ruler/baseDstu3Immunization/Immunization-156574"
      }
    },
    {
      "fullUrl": "http://localhost:8080/cqf-ruler/baseDstu3Observation/Observation-176307",
      "resource": {
        "resourceType": "Observation",
        "id": "Observation-176307",
        "status": "final",
        "code": {
          "coding": [
            {
              "system": "http://loinc.org",
              "code": "8302-2",
              "display": "Height"
            }
          ]
        },
        "subject": {
          "reference": "Patient/Patient-1119",
          "display": "Tricia Lynn Franklin"
        },
        "context": {
          "reference": "Encounter/Encounter-922",
          "display": "Wellness Visit"
        },
        "effectiveDateTime": "1997-03-02T12:00:00-05:00",
        "performer": [
          {
            "reference": "Practitioner/Practitioner-2516",
            "display": "Agnes Tammy Larson MD"
          }
        ],
        "valueQuantity": {
          "value": 129.8,
          "unit": "cm"
        }
      },
      "request": {
        "method": "PUT",
        "url": "http://localhost:8080/cqf-ruler/baseDstu3Observation/Observation-176307"
      }
    },
    {
      "fullUrl": "http://localhost:8080/cqf-ruler/baseDstu3Observation/Observation-176308",
      "resource": {
        "resourceType": "Observation",
        "id": "Observation-176308",
        "status": "final",
        "code": {
          "coding": [
            {
              "system": "http://loinc.org",
              "code": "29463-7",
              "display": "Weight"
            }
          ]
        },
        "subject": {
          "reference": "Patient/Patient-1119",
          "display": "Tricia Lynn Franklin"
        },
        "context": {
          "reference": "Encounter/Encounter-922",
          "display": "Wellness Visit"
        },
        "effectiveDateTime": "1997-03-02T12:00:00-05:00",
        "performer": [
          {
            "reference": "Practitioner/Practitioner-2516",
            "display": "Agnes Tammy Larson MD"
          }
        ],
        "valueQuantity": {
          "value": 21.727894509854107,
          "unit": "kg"
        }
      },
      "request": {
        "method": "PUT",
        "url": "http://localhost:8080/cqf-ruler/baseDstu3Observation/Observation-176308"
      }
    },
    {
      "fullUrl": "http://localhost:8080/cqf-ruler/baseDstu3Observation/Observation-176309",
      "resource": {
        "resourceType": "Observation",
        "id": "Observation-176309",
        "status": "final",
        "code": {
          "coding": [
            {
              "system": "http://loinc.org",
              "code": "39156-5",
              "display": "BMI"
            }
          ]
        },
        "subject": {
          "reference": "Patient/Patient-1119",
          "display": "Tricia Lynn Franklin"
        },
        "context": {
          "reference": "Encounter/Encounter-922",
          "display": "Wellness Visit"
        },
        "effectiveDateTime": "1997-03-02T12:00:00-05:00",
        "performer": [
          {
            "reference": "Practitioner/Practitioner-2516",
            "display": "Agnes Tammy Larson MD"
          }
        ],
        "valueQuantity": {
          "value": 12.896392998742943,
          "unit": "kg/m2"
        }
      },
      "request": {
        "method": "PUT",
        "url": "http://localhost:8080/cqf-ruler/baseDstu3Observation/Observation-176309"
      }
    },
    {
      "fullUrl": "http://localhost:8080/cqf-ruler/baseDstu3Observation/Observation-176310",
      "resource": {
        "resourceType": "Observation",
        "id": "Observation-176310",
        "status": "final",
        "code": {
          "coding": [
            {
              "system": "http://loinc.org",
              "code": "8310-5",
              "display": "Temperature"
            }
          ]
        },
        "subject": {
          "reference": "Patient/Patient-1119",
          "display": "Tricia Lynn Franklin"
        },
        "context": {
          "reference": "Encounter/Encounter-922",
          "display": "Wellness Visit"
        },
        "effectiveDateTime": "1997-03-02T12:00:00-05:00",
        "performer": [
          {
            "reference": "Practitioner/Practitioner-2516",
            "display": "Agnes Tammy Larson MD"
          }
        ],
        "valueQuantity": {
          "value": 37.0,
          "unit": "C"
        }
      },
      "request": {
        "method": "PUT",
        "url": "http://localhost:8080/cqf-ruler/baseDstu3Observation/Observation-176310"
      }
    },
    {
      "fullUrl": "http://localhost:8080/cqf-ruler/baseDstu3Observation/Observation-176311",
      "resource": {
        "resourceType": "Observation",
        "id": "Observation-176311",
        "status": "final",
        "code": {
          "coding": [
            {
              "system": "http://loinc.org",
              "code": "8459-0",
              "display": "Systolic Blood Pressure"
            }
          ]
        },
        "subject": {
          "reference": "Patient/Patient-1119",
          "display": "Tricia Lynn Franklin"
        },
        "context": {
          "reference": "Encounter/Encounter-922",
          "display": "Wellness Visit"
        },
        "effectiveDateTime": "1997-03-02T12:00:00-05:00",
        "performer": [
          {
            "reference": "Practitioner/Practitioner-2516",
            "display": "Agnes Tammy Larson MD"
          }
        ],
        "valueQuantity": {
          "value": 121.68525948137395,
          "unit": "mmHg"
        }
      },
      "request": {
        "method": "PUT",
        "url": "http://localhost:8080/cqf-ruler/baseDstu3Observation/Observation-176311"
      }
    },
    {
      "fullUrl": "http://localhost:8080/cqf-ruler/baseDstu3Observation/Observation-176312",
      "resource": {
        "resourceType": "Observation",
        "id": "Observation-176312",
        "status": "final",
        "code": {
          "coding": [
            {
              "system": "http://loinc.org",
              "code": "8453-3",
              "display": "Diastolic Blood Pressure"
            }
          ]
        },
        "subject": {
          "reference": "Patient/Patient-1119",
          "display": "Tricia Lynn Franklin"
        },
        "context": {
          "reference": "Encounter/Encounter-922",
          "display": "Wellness Visit"
        },
        "effectiveDateTime": "1997-03-02T12:00:00-05:00",
        "performer": [
          {
            "reference": "Practitioner/Practitioner-2516",
            "display": "Agnes Tammy Larson MD"
          }
        ],
        "valueQuantity": {
          "value": 72.05746075277538,
          "unit": "mmHg"
        }
      },
      "request": {
        "method": "PUT",
        "url": "http://localhost:8080/cqf-ruler/baseDstu3Observation/Observation-176312"
      }
    },
    {
      "fullUrl": "http://localhost:8080/cqf-ruler/baseDstu3DiagnosticReport/DiagnosticReport-176306",
      "resource": {
        "resourceType": "DiagnosticReport",
        "id": "DiagnosticReport-176306",
        "status": "final",
        "code": {
          "coding": [
            {
              "system": "http://loinc.org",
              "code": "8716-3",
              "display": "Vital Signs Panel"
            }
          ]
        },
        "subject": {
          "reference": "Patient/Patient-1119",
          "display": "Tricia Lynn Franklin"
        },
        "context": {
          "reference": "Encounter/Encounter-922",
          "display": "Wellness Visit"
        },
        "effectivePeriod": {
          "start": "1997-03-02T12:00:00-05:00",
          "end": "1997-03-02T12:00:00-05:00"
        },
        "issued": "1997-03-02T12:00:00.000-05:00",
        "result": [
          {
            "reference": "Observation/Observation-176307",
            "display": "Height"
          },
          {
            "reference": "Observation/Observation-176308",
            "display": "Weight"
          },
          {
            "reference": "Observation/Observation-176309",
            "display": "BMI"
          },
          {
            "reference": "Observation/Observation-176310",
            "display": "Temperature"
          },
          {
            "reference": "Observation/Observation-176311",
            "display": "Systolic Blood Pressure"
          },
          {
            "reference": "Observation/Observation-176312",
            "display": "Diastolic Blood Pressure"
          }
        ]
      },
      "request": {
        "method": "PUT",
        "url": "http://localhost:8080/cqf-ruler/baseDstu3DiagnosticReport/DiagnosticReport-176306"
      }
    }
  ]
}