{
  "resourceType": "Bundle",
  "id": "Tricia Lynn Franklin-1119-Encounter-1486",
  "type": "transaction",
  "entry": [
    {
      "fullUrl": "http://localhost:8080/cqf-ruler/baseDstu3/Encounter/Encounter-1486",
      "resource": {
        "resourceType": "Encounter",
        "id": "Encounter-1486",
        "status": "finished",
        "class": {
          "system": "http://hl7.org/fhir/encounter-class",
          "code": "outpatient",
          "display": "Inpatient"
        },
        "subject": {
          "reference": "Patient/Patient-1119",
          "display": "Tricia Lynn Franklin"
        },
        "participant": [
          {
            "period": {
              "start": "2004-01-25T12:00:00-05:00",
              "end": "2004-01-25T12:00:00-05:00"
            },
            "individual": {
              "reference": "Practitioner/Practitioner-2516",
              "display": "Agnes Tammy Larson MD"
            }
          }
        ],
        "period": {
          "start": "2004-01-25T12:00:00-05:00",
          "end": "2004-01-25T12:00:00-05:00"
        },
        "location": [
          {
            "location": {
              "reference": "Location/Location-1101",
              "display": "McKinley Health Center"
            }
          }
        ],
        "serviceProvider": {
          "reference": "Organization/Organization-1101",
          "display": "McKinley Health Center"
        }
      },
      "request": {
        "method": "PUT",
        "url": "http://localhost:8080/cqf-ruler/baseDstu3/Encounter/Encounter-1486"
      }
    },
    {
      "fullUrl": "http://localhost:8080/cqf-ruler/baseDstu3/Immunization/Immunization-297171",
      "resource": {
        "resourceType": "Immunization",
        "id": "Immunization-297171",
        "status": "completed",
        "notGiven": false,
        "vaccineCode": {
          "coding": [
            {
              "system": "http://hl7.org/fhir/sid/cvx",
              "code": "140",
              "display": "Influenza, seasonal, injectable, preservative free"
            }
          ]
        },
        "patient": {
          "reference": "Patient/Patient-1119",
          "display": "Tricia Lynn Franklin"
        },
        "date": "2004-01-25T12:00:00-05:00",
        "primarySource": true,
        "location": {
          "reference": "Location/Location-1101",
          "display": "McKinley Health Center"
        },
        "practitioner": [
          {
            "actor": {
              "reference": "Practitioner/Practitioner-2516",
              "display": "Agnes Tammy Larson MD"
            }
          }
        ]
      },
      "request": {
        "method": "PUT",
        "url": "http://localhost:8080/cqf-ruler/baseDstu3/Immunization/Immunization-297171"
      }
    },
    {
      "fullUrl": "http://localhost:8080/cqf-ruler/baseDstu3/Immunization/Immunization-297172",
      "resource": {
        "resourceType": "Immunization",
        "id": "Immunization-297172",
        "status": "completed",
        "notGiven": false,
        "vaccineCode": {
          "coding": [
            {
              "system": "http://hl7.org/fhir/sid/cvx",
              "code": "114",
              "display": "meningococcal MCV4P"
            }
          ]
        },
        "patient": {
          "reference": "Patient/Patient-1119",
          "display": "Tricia Lynn Franklin"
        },
        "date": "2004-01-25T12:00:00-05:00",
        "primarySource": true,
        "location": {
          "reference": "Location/Location-1101",
          "display": "McKinley Health Center"
        },
        "practitioner": [
          {
            "actor": {
              "reference": "Practitioner/Practitioner-2516",
              "display": "Agnes Tammy Larson MD"
            }
          }
        ]
      },
      "request": {
        "method": "PUT",
        "url": "http://localhost:8080/cqf-ruler/baseDstu3/Immunization/Immunization-297172"
      }
    },
    {
      "fullUrl": "http://localhost:8080/cqf-ruler/baseDstu3/Observation/Observation-318370",
      "resource": {
        "resourceType": "Observation",
        "id": "Observation-318370",
        "status": "final",
        "code": {
          "coding": [
            {
              "system": "http://loinc.org",
              "code": "8302-2",
              "display": "Height"
            }
          ]
        },
        "subject": {
          "reference": "Patient/Patient-1119",
          "display": "Tricia Lynn Franklin"
        },
        "context": {
          "reference": "Encounter/Encounter-1486",
          "display": "McKinley Health Center"
        },
        "effectiveDateTime": "2004-01-25T12:00:00-05:00",
        "performer": [
          {
            "reference": "Practitioner/Practitioner-2516",
            "display": "Agnes Tammy Larson MD"
          }
        ],
        "valueQuantity": {
          "value": 162.9,
          "unit": "cm"
        }
      },
      "request": {
        "method": "PUT",
        "url": "http://localhost:8080/cqf-ruler/baseDstu3/Observation/Observation-318370"
      }
    },
    {
      "fullUrl": "http://localhost:8080/cqf-ruler/baseDstu3/Observation/Observation-318371",
      "resource": {
        "resourceType": "Observation",
        "id": "Observation-318371",
        "status": "final",
        "code": {
          "coding": [
            {
              "system": "http://loinc.org",
              "code": "29463-7",
              "display": "Weight"
            }
          ]
        },
        "subject": {
          "reference": "Patient/Patient-1119",
          "display": "Tricia Lynn Franklin"
        },
        "context": {
          "reference": "Encounter/Encounter-1486",
          "display": "McKinley Health Center"
        },
        "effectiveDateTime": "2004-01-25T12:00:00-05:00",
        "performer": [
          {
            "reference": "Practitioner/Practitioner-2516",
            "display": "Agnes Tammy Larson MD"
          }
        ],
        "valueQuantity": {
          "value": 46.45268089461493,
          "unit": "kg"
        }
      },
      "request": {
        "method": "PUT",
        "url": "http://localhost:8080/cqf-ruler/baseDstu3/Observation/Observation-318371"
      }
    },
    {
      "fullUrl": "http://localhost:8080/cqf-ruler/baseDstu3/Observation/Observation-318372",
      "resource": {
        "resourceType": "Observation",
        "id": "Observation-318372",
        "status": "final",
        "code": {
          "coding": [
            {
              "system": "http://loinc.org",
              "code": "39156-5",
              "display": "BMI"
            }
          ]
        },
        "subject": {
          "reference": "Patient/Patient-1119",
          "display": "Tricia Lynn Franklin"
        },
        "context": {
          "reference": "Encounter/Encounter-1486",
          "display": "McKinley Health Center"
        },
        "effectiveDateTime": "2004-01-25T12:00:00-05:00",
        "performer": [
          {
            "reference": "Practitioner/Practitioner-2516",
            "display": "Agnes Tammy Larson MD"
          }
        ],
        "valueQuantity": {
          "value": 17.50526197575894,
          "unit": "kg/m2"
        }
      },
      "request": {
        "method": "PUT",
        "url": "http://localhost:8080/cqf-ruler/baseDstu3/Observation/Observation-318372"
      }
    },
    {
      "fullUrl": "http://localhost:8080/cqf-ruler/baseDstu3/Observation/Observation-318373",
      "resource": {
        "resourceType": "Observation",
        "id": "Observation-318373",
        "status": "final",
        "code": {
          "coding": [
            {
              "system": "http://loinc.org",
              "code": "8310-5",
              "display": "Temperature"
            }
          ]
        },
        "subject": {
          "reference": "Patient/Patient-1119",
          "display": "Tricia Lynn Franklin"
        },
        "context": {
          "reference": "Encounter/Encounter-1486",
          "display": "McKinley Health Center"
        },
        "effectiveDateTime": "2004-01-25T12:00:00-05:00",
        "performer": [
          {
            "reference": "Practitioner/Practitioner-2516",
            "display": "Agnes Tammy Larson MD"
          }
        ],
        "valueQuantity": {
          "value": 37.0,
          "unit": "C"
        }
      },
      "request": {
        "method": "PUT",
        "url": "http://localhost:8080/cqf-ruler/baseDstu3/Observation/Observation-318373"
      }
    },
    {
      "fullUrl": "http://localhost:8080/cqf-ruler/baseDstu3/Observation/Observation-318374",
      "resource": {
        "resourceType": "Observation",
        "id": "Observation-318374",
        "status": "final",
        "code": {
          "coding": [
            {
              "system": "http://loinc.org",
              "code": "8459-0",
              "display": "Systolic Blood Pressure"
            }
          ]
        },
        "subject": {
          "reference": "Patient/Patient-1119",
          "display": "Tricia Lynn Franklin"
        },
        "context": {
          "reference": "Encounter/Encounter-1486",
          "display": "McKinley Health Center"
        },
        "effectiveDateTime": "2004-01-25T12:00:00-05:00",
        "performer": [
          {
            "reference": "Practitioner/Practitioner-2516",
            "display": "Agnes Tammy Larson MD"
          }
        ],
        "valueQuantity": {
          "value": 119.01636950195905,
          "unit": "mmHg"
        }
      },
      "request": {
        "method": "PUT",
        "url": "http://localhost:8080/cqf-ruler/baseDstu3/Observation/Observation-318374"
      }
    },
    {
      "fullUrl": "http://localhost:8080/cqf-ruler/baseDstu3/Observation/Observation-318375",
      "resource": {
        "resourceType": "Observation",
        "id": "Observation-318375",
        "status": "final",
        "code": {
          "coding": [
            {
              "system": "http://loinc.org",
              "code": "8453-3",
              "display": "Diastolic Blood Pressure"
            }
          ]
        },
        "subject": {
          "reference": "Patient/Patient-1119",
          "display": "Tricia Lynn Franklin"
        },
        "context": {
          "reference": "Encounter/Encounter-1486",
          "display": "McKinley Health Center"
        },
        "effectiveDateTime": "2004-01-25T12:00:00-05:00",
        "performer": [
          {
            "reference": "Practitioner/Practitioner-2516",
            "display": "Agnes Tammy Larson MD"
          }
        ],
        "valueQuantity": {
          "value": 83.91316266264174,
          "unit": "mmHg"
        }
      },
      "request": {
        "method": "PUT",
        "url": "http://localhost:8080/cqf-ruler/baseDstu3/Observation/Observation-318375"
      }
    },
    {
      "fullUrl": "http://localhost:8080/cqf-ruler/baseDstu3/DiagnosticReport/DiagnosticReport-318369",
      "resource": {
        "resourceType": "DiagnosticReport",
        "id": "DiagnosticReport-318369",
        "status": "final",
        "code": {
          "coding": [
            {
              "system": "http://loinc.org",
              "code": "8716-3",
              "display": "Vital Signs Panel"
            }
          ]
        },
        "subject": {
          "reference": "Patient/Patient-1119",
          "display": "Tricia Lynn Franklin"
        },
        "context": {
          "reference": "Encounter/Encounter-1486",
          "display": "McKinley Health Center"
        },
        "effectivePeriod": {
          "start": "2004-01-25T12:00:00-05:00",
          "end": "2004-01-25T12:00:00-05:00"
        },
        "issued": "2004-01-25T12:00:00.000-05:00",
        "result": [
          {
            "reference": "Observation/Observation-318370",
            "display": "Height"
          },
          {
            "reference": "Observation/Observation-318371",
            "display": "Weight"
          },
          {
            "reference": "Observation/Observation-318372",
            "display": "BMI"
          },
          {
            "reference": "Observation/Observation-318373",
            "display": "Temperature"
          },
          {
            "reference": "Observation/Observation-318374",
            "display": "Systolic Blood Pressure"
          },
          {
            "reference": "Observation/Observation-318375",
            "display": "Diastolic Blood Pressure"
          }
        ]
      },
      "request": {
        "method": "PUT",
        "url": "http://localhost:8080/cqf-ruler/baseDstu3/DiagnosticReport/DiagnosticReport-318369"
      }
    }
  ]
}