{
  "resourceType": "Bundle",
  "id": "Tricia-Lynn-Franklin-1119-Encounter-3870",
  "type": "transaction",
  "entry": [
    {
      "fullUrl": "http://localhost:8080/cqf-ruler/baseDstu3/Encounter/Encounter-3870",
      "resource": {
        "resourceType": "Encounter",
        "id": "Encounter-3870",
        "meta": {
          "profile": [
            "http://hl7.org/fhir/us/hedis/StructureDefinition/hedis-encounter"
          ]
        },
        "status": "finished",
        "class": {
          "system": "http://hl7.org/fhir/encounter-class",
          "code": "outpatient",
          "display": "Outpatient"
        },
        "type": [
          {
            "coding": [
              {
                "system": "https://www.cms.gov/Medicare/Coding/MedHCPCSGenInfo",
                "code": "H0031",
                "display": "Mental health assessment, by non-physician (H0031)"
              }
            ]
          }
        ],
        "subject": {
          "reference": "Patient/Patient-1119",
          "display": "Tricia Lynn Franklin"
        },
        "participant": [
          {
            "period": {
              "start": "2017-05-26T01:00:00-04:00",
              "end": "2017-05-26T01:00:00-04:00"
            },
            "individual": {
              "reference": "Practitioner/Practitioner-2516",
              "display": "Agnes Tammy Larson MD"
            }
          }
        ],
        "period": {
          "start": "2017-05-26T01:00:00-04:00",
          "end": "2017-05-26T01:00:00-04:00"
        },
        "reason": [
          {
            "coding": [
              {
                "system": "http://snomed.info/sct",
                "code": "310495003",
                "display": "Mild depression (disorder)"
              }
            ]
          }
        ],
        "location": [
          {
            "location": {
              "reference": "Location/Location-1101",
              "display": "McKinley Health Center"
            }
          }
        ],
        "serviceProvider": {
          "reference": "Organization/Organization-1101",
          "display": "McKinley Health Center"
        }
      },
      "request": {
        "method": "PUT",
        "url": "http://localhost:8080/cqf-ruler/baseDstu3/Encounter/Encounter-3870"
      }
    },
    {
      "fullUrl": "http://localhost:8080/cqf-ruler/baseDstu3/Procedure/Procedure-677391",
      "resource": {
        "resourceType": "Procedure",
        "id": "Procedure-677391",
        "meta": {
          "profile": [
            "http://hl7.org/fhir/us/hedis/StructureDefinition/hedis-procedure"
          ]
        },
        "status": "completed",
        "code": {
          "coding": [
            {
              "system": "http://test",
              "code": "2.16.840.1.113883.3.67.1.101.11.723",
              "display": "2.16.840.1.113883.3.67.1.101.11.723"
            }
          ]
        },
        "subject": {
          "reference": "Patient/Patient-1119",
          "display": "Tricia Lynn Franklin"
        },
        "context": {
          "reference": "Encounter/Encounter-3870",
          "display": "DRR_Encounter"
        },
        "performedPeriod": {
          "start": "2017-05-26T01:00:00-04:00",
          "end": "2017-05-26T01:00:00-04:00"
        },
        "performer": [
          {
            "actor": {
              "reference": "Practitioner/Practitioner-2516",
              "display": "Agnes Tammy Larson MD"
            }
          }
        ],
        "location": {
          "reference": "Location/Location-1101",
          "display": "McKinley Health Center"
        }
      },
      "request": {
        "method": "PUT",
        "url": "http://localhost:8080/cqf-ruler/baseDstu3/Procedure/Procedure-677391"
      }
    },
    {
      "fullUrl": "http://localhost:8080/cqf-ruler/baseDstu3/Observation/Observation-677392",
      "resource": {
        "resourceType": "Observation",
        "id": "Observation-677392",
        "meta": {
          "profile": [
            "http://hl7.org/fhir/us/hedis/StructureDefinition/hedis-observation"
          ]
        },
        "status": "final",
        "code": {
          "coding": [
            {
              "system": "http://cqframework.info/codesystem/placeholder",
              "code": "00009",
              "display": "PHQ-9 Modified Score"
            }
          ]
        },
        "subject": {
          "reference": "Patient/Patient-1119",
          "display": "Tricia Lynn Franklin"
        },
        "context": {
          "reference": "Encounter/Encounter-3870",
          "display": "DRR_Encounter"
        },
        "effectiveDateTime": "2017-05-26T01:00:00-04:00",
        "performer": [
          {
            "reference": "Practitioner/Practitioner-2516",
            "display": "Agnes Tammy Larson MD"
          }
        ],
        "valueQuantity": {
          "value": 4.0,
          "unit": "score"
        }
      },
      "request": {
        "method": "PUT",
        "url": "http://localhost:8080/cqf-ruler/baseDstu3/Observation/Observation-677392"
      }
    },
    {
      "fullUrl": "http://localhost:8080/cqf-ruler/baseDstu3/DiagnosticReport/DiagnosticReport-677393",
      "resource": {
        "resourceType": "DiagnosticReport",
        "id": "DiagnosticReport-677393",
        "meta": {
          "profile": [
            "http://hl7.org/fhir/us/hedis/StructureDefinition/hedis-diagnosticreport"
          ]
        },
        "status": "final",
        "category": {
          "coding": [
            {
              "system": "http://hl7.org/fhir/ValueSet/diagnostic-service-sections",
              "code": "OTH",
              "display": "Other"
            }
          ]
        },
        "code": {
          "coding": [
            {
              "system": "http://snomed.info/sct",
              "code": "20250007",
              "display": "Severe major depression, single episode, with psychotic features, mood-incongruent (disorder)"
            }
          ]
        },
        "subject": {
          "reference": "Patient/Patient-1119",
          "display": "Tricia Lynn Franklin"
        },
        "context": {
          "reference": "Encounter/Encounter-3870",
          "display": "DRR_Encounter"
        },
        "effectivePeriod": {
          "start": "2017-05-26T01:00:00-04:00",
          "end": "2017-05-26T01:00:00-04:00"
        },
        "issued": "2017-05-26T01:00:00.000-04:00"
      },
      "request": {
        "method": "PUT",
        "url": "http://localhost:8080/cqf-ruler/baseDstu3/DiagnosticReport/DiagnosticReport-677393"
      }
    },
    {
      "fullUrl": "http://localhost:8080/cqf-ruler/baseDstu3/Observation/Observation-677396",
      "resource": {
        "resourceType": "Observation",
        "id": "Observation-677396",
        "status": "final",
        "code": {
          "coding": [
            {
              "system": "http://loinc.org",
              "code": "8302-2",
              "display": "Height"
            }
          ]
        },
        "subject": {
          "reference": "Patient/Patient-1119",
          "display": "Tricia Lynn Franklin"
        },
        "context": {
          "reference": "Encounter/Encounter-3870",
          "display": "DRR_Encounter"
        },
        "effectiveDateTime": "2017-05-26T01:00:00-04:00",
        "performer": [
          {
            "reference": "Practitioner/Practitioner-2516",
            "display": "Agnes Tammy Larson MD"
          }
        ],
        "valueQuantity": {
          "value": 155.0,
          "unit": "cm"
        }
      },
      "request": {
        "method": "PUT",
        "url": "http://localhost:8080/cqf-ruler/baseDstu3/Observation/Observation-677396"
      }
    },
    {
      "fullUrl": "http://localhost:8080/cqf-ruler/baseDstu3/Observation/Observation-677397",
      "resource": {
        "resourceType": "Observation",
        "id": "Observation-677397",
        "status": "final",
        "code": {
          "coding": [
            {
              "system": "http://loinc.org",
              "code": "29463-7",
              "display": "Weight"
            }
          ]
        },
        "subject": {
          "reference": "Patient/Patient-1119",
          "display": "Tricia Lynn Franklin"
        },
        "context": {
          "reference": "Encounter/Encounter-3870",
          "display": "DRR_Encounter"
        },
        "effectiveDateTime": "2017-05-26T01:00:00-04:00",
        "performer": [
          {
            "reference": "Practitioner/Practitioner-2516",
            "display": "Agnes Tammy Larson MD"
          }
        ],
        "valueQuantity": {
          "value": 84.84057322508443,
          "unit": "kg"
        }
      },
      "request": {
        "method": "PUT",
        "url": "http://localhost:8080/cqf-ruler/baseDstu3/Observation/Observation-677397"
      }
    },
    {
      "fullUrl": "http://localhost:8080/cqf-ruler/baseDstu3/Observation/Observation-677398",
      "resource": {
        "resourceType": "Observation",
        "id": "Observation-677398",
        "status": "final",
        "code": {
          "coding": [
            {
              "system": "http://loinc.org",
              "code": "39156-5",
              "display": "BMI"
            }
          ]
        },
        "subject": {
          "reference": "Patient/Patient-1119",
          "display": "Tricia Lynn Franklin"
        },
        "context": {
          "reference": "Encounter/Encounter-3870",
          "display": "DRR_Encounter"
        },
        "effectiveDateTime": "2017-05-26T01:00:00-04:00",
        "performer": [
          {
            "reference": "Practitioner/Practitioner-2516",
            "display": "Agnes Tammy Larson MD"
          }
        ],
        "valueQuantity": {
          "value": 35.313453995872806,
          "unit": "kg/m2"
        }
      },
      "request": {
        "method": "PUT",
        "url": "http://localhost:8080/cqf-ruler/baseDstu3/Observation/Observation-677398"
      }
    },
    {
      "fullUrl": "http://localhost:8080/cqf-ruler/baseDstu3/Observation/Observation-677399",
      "resource": {
        "resourceType": "Observation",
        "id": "Observation-677399",
        "status": "final",
        "code": {
          "coding": [
            {
              "system": "http://loinc.org",
              "code": "8310-5",
              "display": "Temperature"
            }
          ]
        },
        "subject": {
          "reference": "Patient/Patient-1119",
          "display": "Tricia Lynn Franklin"
        },
        "context": {
          "reference": "Encounter/Encounter-3870",
          "display": "DRR_Encounter"
        },
        "effectiveDateTime": "2017-05-26T01:00:00-04:00",
        "performer": [
          {
            "reference": "Practitioner/Practitioner-2516",
            "display": "Agnes Tammy Larson MD"
          }
        ],
        "valueQuantity": {
          "value": 37.0,
          "unit": "C"
        }
      },
      "request": {
        "method": "PUT",
        "url": "http://localhost:8080/cqf-ruler/baseDstu3/Observation/Observation-677399"
      }
    },
    {
      "fullUrl": "http://localhost:8080/cqf-ruler/baseDstu3/Observation/Observation-677400",
      "resource": {
        "resourceType": "Observation",
        "id": "Observation-677400",
        "status": "final",
        "code": {
          "coding": [
            {
              "system": "http://loinc.org",
              "code": "8459-0",
              "display": "Systolic Blood Pressure"
            }
          ]
        },
        "subject": {
          "reference": "Patient/Patient-1119",
          "display": "Tricia Lynn Franklin"
        },
        "context": {
          "reference": "Encounter/Encounter-3870",
          "display": "DRR_Encounter"
        },
        "effectiveDateTime": "2017-05-26T01:00:00-04:00",
        "performer": [
          {
            "reference": "Practitioner/Practitioner-2516",
            "display": "Agnes Tammy Larson MD"
          }
        ],
        "valueQuantity": {
          "value": 130.9985491118174,
          "unit": "mmHg"
        }
      },
      "request": {
        "method": "PUT",
        "url": "http://localhost:8080/cqf-ruler/baseDstu3/Observation/Observation-677400"
      }
    },
    {
      "fullUrl": "http://localhost:8080/cqf-ruler/baseDstu3/Observation/Observation-677401",
      "resource": {
        "resourceType": "Observation",
        "id": "Observation-677401",
        "status": "final",
        "code": {
          "coding": [
            {
              "system": "http://loinc.org",
              "code": "8453-3",
              "display": "Diastolic Blood Pressure"
            }
          ]
        },
        "subject": {
          "reference": "Patient/Patient-1119",
          "display": "Tricia Lynn Franklin"
        },
        "context": {
          "reference": "Encounter/Encounter-3870",
          "display": "DRR_Encounter"
        },
        "effectiveDateTime": "2017-05-26T01:00:00-04:00",
        "performer": [
          {
            "reference": "Practitioner/Practitioner-2516",
            "display": "Agnes Tammy Larson MD"
          }
        ],
        "valueQuantity": {
          "value": 61.93499939565527,
          "unit": "mmHg"
        }
      },
      "request": {
        "method": "PUT",
        "url": "http://localhost:8080/cqf-ruler/baseDstu3/Observation/Observation-677401"
      }
    },
    {
      "fullUrl": "http://localhost:8080/cqf-ruler/baseDstu3/DiagnosticReport/DiagnosticReport-677395",
      "resource": {
        "resourceType": "DiagnosticReport",
        "id": "DiagnosticReport-677395",
        "meta": {
          "profile": [
            "http://hl7.org/fhir/us/hedis/StructureDefinition/hedis-diagnosticreport"
          ]
        },
        "status": "final",
        "category": {
          "coding": [
            {
              "system": "http://hl7.org/fhir/ValueSet/diagnostic-service-sections",
              "code": "LAB",
              "display": "Laboratory"
            }
          ]
        },
        "code": {
          "coding": [
            {
              "system": "http://loinc.org",
              "code": "8716-3",
              "display": "Vital Signs Panel"
            }
          ]
        },
        "subject": {
          "reference": "Patient/Patient-1119",
          "display": "Tricia Lynn Franklin"
        },
        "context": {
          "reference": "Encounter/Encounter-3870",
          "display": "DRR_Encounter"
        },
        "effectivePeriod": {
          "start": "2017-05-26T01:00:00-04:00",
          "end": "2017-05-26T01:00:00-04:00"
        },
        "issued": "2017-05-26T01:00:00.000-04:00",
        "result": [
          {
            "reference": "Observation/Observation-677396",
            "display": "Height"
          },
          {
            "reference": "Observation/Observation-677397",
            "display": "Weight"
          },
          {
            "reference": "Observation/Observation-677398",
            "display": "BMI"
          },
          {
            "reference": "Observation/Observation-677399",
            "display": "Temperature"
          },
          {
            "reference": "Observation/Observation-677400",
            "display": "Systolic Blood Pressure"
          },
          {
            "reference": "Observation/Observation-677401",
            "display": "Diastolic Blood Pressure"
          }
        ]
      },
      "request": {
        "method": "PUT",
        "url": "http://localhost:8080/cqf-ruler/baseDstu3/DiagnosticReport/DiagnosticReport-677395"
      }
    }
  ]
}