{
  "resourceType": "Bundle",
  "id": "Jeanette-Ramona-Pugh-6534-Encounter-3788",
  "type": "transaction",
  "entry": [
    {
      "fullUrl": "http://localhost:8080/cqf-ruler/baseDstu3/Encounter/Encounter-3788",
      "resource": {
        "resourceType": "Encounter",
        "id": "Encounter-3788",
        "meta": {
          "profile": [
            "http://hl7.org/fhir/us/hedis/StructureDefinition/hedis-encounter"
          ]
        },
        "status": "finished",
        "class": {
          "system": "http://hl7.org/fhir/encounter-class",
          "code": "outpatient",
          "display": "Outpatient"
        },
        "type": [
          {
            "coding": [
              {
                "system": "https://www.cms.gov/Medicare/Coding/MedHCPCSGenInfo",
                "code": "H2019",
                "display": "Therapeutic behavioral services, per 15 minutes (H2019)"
              }
            ]
          }
        ],
        "subject": {
          "reference": "Patient/Patient-6534",
          "display": "Jeanette Ramona Pugh"
        },
        "participant": [
          {
            "period": {
              "start": "2017-05-11T00:00:00-04:00",
              "end": "2017-05-11T00:00:00-04:00"
            },
            "individual": {
              "reference": "Practitioner/Practitioner-2531",
              "display": "Tracy Hampton Boone MD"
            }
          }
        ],
        "period": {
          "start": "2017-05-11T00:00:00-04:00",
          "end": "2017-05-11T00:00:00-04:00"
        },
        "reason": [
          {
            "coding": [
              {
                "system": "http://snomed.info/sct",
                "code": "310496002",
                "display": "Moderate depression (disorder)"
              }
            ]
          }
        ],
        "location": [
          {
            "location": {
              "reference": "Location/Location-1104",
              "display": "Bay Area Family Practice"
            }
          }
        ],
        "serviceProvider": {
          "reference": "Organization/Organization-1104",
          "display": "Bay Area Family Practice"
        }
      },
      "request": {
        "method": "PUT",
        "url": "http://localhost:8080/cqf-ruler/baseDstu3/Encounter/Encounter-3788"
      }
    },
    {
      "fullUrl": "http://localhost:8080/cqf-ruler/baseDstu3/Procedure/Procedure-674286",
      "resource": {
        "resourceType": "Procedure",
        "id": "Procedure-674286",
        "meta": {
          "profile": [
            "http://hl7.org/fhir/us/hedis/StructureDefinition/hedis-procedure"
          ]
        },
        "status": "completed",
        "code": {
          "coding": [
            {
              "system": "http://test",
              "code": "2.16.840.1.113883.3.67.1.101.11.723",
              "display": "2.16.840.1.113883.3.67.1.101.11.723"
            }
          ]
        },
        "subject": {
          "reference": "Patient/Patient-6534",
          "display": "Jeanette Ramona Pugh"
        },
        "context": {
          "reference": "Encounter/Encounter-3788",
          "display": "DRR_Encounter"
        },
        "performedPeriod": {
          "start": "2017-05-11T00:00:00-04:00",
          "end": "2017-05-11T00:00:00-04:00"
        },
        "performer": [
          {
            "actor": {
              "reference": "Practitioner/Practitioner-2531",
              "display": "Tracy Hampton Boone MD"
            }
          }
        ],
        "location": {
          "reference": "Location/Location-1104",
          "display": "Bay Area Family Practice"
        }
      },
      "request": {
        "method": "PUT",
        "url": "http://localhost:8080/cqf-ruler/baseDstu3/Procedure/Procedure-674286"
      }
    },
    {
      "fullUrl": "http://localhost:8080/cqf-ruler/baseDstu3/Observation/Observation-674287",
      "resource": {
        "resourceType": "Observation",
        "id": "Observation-674287",
        "meta": {
          "profile": [
            "http://hl7.org/fhir/us/hedis/StructureDefinition/hedis-observation"
          ]
        },
        "status": "final",
        "code": {
          "coding": [
            {
              "system": "http://cqframework.info/codesystem/placeholder",
              "code": "00009",
              "display": "PHQ-9 Modified Score"
            }
          ]
        },
        "subject": {
          "reference": "Patient/Patient-6534",
          "display": "Jeanette Ramona Pugh"
        },
        "context": {
          "reference": "Encounter/Encounter-3788",
          "display": "DRR_Encounter"
        },
        "effectiveDateTime": "2017-05-11T00:00:00-04:00",
        "performer": [
          {
            "reference": "Practitioner/Practitioner-2531",
            "display": "Tracy Hampton Boone MD"
          }
        ],
        "valueQuantity": {
          "value": 13.0,
          "unit": "score"
        }
      },
      "request": {
        "method": "PUT",
        "url": "http://localhost:8080/cqf-ruler/baseDstu3/Observation/Observation-674287"
      }
    },
    {
      "fullUrl": "http://localhost:8080/cqf-ruler/baseDstu3/DiagnosticReport/DiagnosticReport-674288",
      "resource": {
        "resourceType": "DiagnosticReport",
        "id": "DiagnosticReport-674288",
        "meta": {
          "profile": [
            "http://hl7.org/fhir/us/hedis/StructureDefinition/hedis-diagnosticreport"
          ]
        },
        "status": "final",
        "category": {
          "coding": [
            {
              "system": "http://hl7.org/fhir/ValueSet/diagnostic-service-sections",
              "code": "OTH",
              "display": "Other"
            }
          ]
        },
        "code": {
          "coding": [
            {
              "system": "http://hl7.org/fhir/sid/icd-9-cm",
              "code": "296.30",
              "display": "Major depressive affective disorder, recurrent episode, unspecified"
            }
          ]
        },
        "subject": {
          "reference": "Patient/Patient-6534",
          "display": "Jeanette Ramona Pugh"
        },
        "context": {
          "reference": "Encounter/Encounter-3788",
          "display": "DRR_Encounter"
        },
        "effectivePeriod": {
          "start": "2017-05-11T00:00:00-04:00",
          "end": "2017-05-11T00:00:00-04:00"
        },
        "issued": "2017-05-11T00:00:00.000-04:00"
      },
      "request": {
        "method": "PUT",
        "url": "http://localhost:8080/cqf-ruler/baseDstu3/DiagnosticReport/DiagnosticReport-674288"
      }
    },
    {
      "fullUrl": "http://localhost:8080/cqf-ruler/baseDstu3/Observation/Observation-674291",
      "resource": {
        "resourceType": "Observation",
        "id": "Observation-674291",
        "status": "final",
        "code": {
          "coding": [
            {
              "system": "http://loinc.org",
              "code": "8302-2",
              "display": "Height"
            }
          ]
        },
        "subject": {
          "reference": "Patient/Patient-6534",
          "display": "Jeanette Ramona Pugh"
        },
        "context": {
          "reference": "Encounter/Encounter-3788",
          "display": "DRR_Encounter"
        },
        "effectiveDateTime": "2017-05-11T00:00:00-04:00",
        "performer": [
          {
            "reference": "Practitioner/Practitioner-2531",
            "display": "Tracy Hampton Boone MD"
          }
        ],
        "valueQuantity": {
          "value": 149.7,
          "unit": "cm"
        }
      },
      "request": {
        "method": "PUT",
        "url": "http://localhost:8080/cqf-ruler/baseDstu3/Observation/Observation-674291"
      }
    },
    {
      "fullUrl": "http://localhost:8080/cqf-ruler/baseDstu3/Observation/Observation-674292",
      "resource": {
        "resourceType": "Observation",
        "id": "Observation-674292",
        "status": "final",
        "code": {
          "coding": [
            {
              "system": "http://loinc.org",
              "code": "29463-7",
              "display": "Weight"
            }
          ]
        },
        "subject": {
          "reference": "Patient/Patient-6534",
          "display": "Jeanette Ramona Pugh"
        },
        "context": {
          "reference": "Encounter/Encounter-3788",
          "display": "DRR_Encounter"
        },
        "effectiveDateTime": "2017-05-11T00:00:00-04:00",
        "performer": [
          {
            "reference": "Practitioner/Practitioner-2531",
            "display": "Tracy Hampton Boone MD"
          }
        ],
        "valueQuantity": {
          "value": 47.1,
          "unit": "kg"
        }
      },
      "request": {
        "method": "PUT",
        "url": "http://localhost:8080/cqf-ruler/baseDstu3/Observation/Observation-674292"
      }
    },
    {
      "fullUrl": "http://localhost:8080/cqf-ruler/baseDstu3/Observation/Observation-674293",
      "resource": {
        "resourceType": "Observation",
        "id": "Observation-674293",
        "status": "final",
        "code": {
          "coding": [
            {
              "system": "http://loinc.org",
              "code": "39156-5",
              "display": "BMI"
            }
          ]
        },
        "subject": {
          "reference": "Patient/Patient-6534",
          "display": "Jeanette Ramona Pugh"
        },
        "context": {
          "reference": "Encounter/Encounter-3788",
          "display": "DRR_Encounter"
        },
        "effectiveDateTime": "2017-05-11T00:00:00-04:00",
        "performer": [
          {
            "reference": "Practitioner/Practitioner-2531",
            "display": "Tracy Hampton Boone MD"
          }
        ],
        "valueQuantity": {
          "value": 21.017318538212034,
          "unit": "kg/m2"
        }
      },
      "request": {
        "method": "PUT",
        "url": "http://localhost:8080/cqf-ruler/baseDstu3/Observation/Observation-674293"
      }
    },
    {
      "fullUrl": "http://localhost:8080/cqf-ruler/baseDstu3/Observation/Observation-674294",
      "resource": {
        "resourceType": "Observation",
        "id": "Observation-674294",
        "status": "final",
        "code": {
          "coding": [
            {
              "system": "http://loinc.org",
              "code": "8310-5",
              "display": "Temperature"
            }
          ]
        },
        "subject": {
          "reference": "Patient/Patient-6534",
          "display": "Jeanette Ramona Pugh"
        },
        "context": {
          "reference": "Encounter/Encounter-3788",
          "display": "DRR_Encounter"
        },
        "effectiveDateTime": "2017-05-11T00:00:00-04:00",
        "performer": [
          {
            "reference": "Practitioner/Practitioner-2531",
            "display": "Tracy Hampton Boone MD"
          }
        ],
        "valueQuantity": {
          "value": 37.0,
          "unit": "C"
        }
      },
      "request": {
        "method": "PUT",
        "url": "http://localhost:8080/cqf-ruler/baseDstu3/Observation/Observation-674294"
      }
    },
    {
      "fullUrl": "http://localhost:8080/cqf-ruler/baseDstu3/Observation/Observation-674295",
      "resource": {
        "resourceType": "Observation",
        "id": "Observation-674295",
        "status": "final",
        "code": {
          "coding": [
            {
              "system": "http://loinc.org",
              "code": "8459-0",
              "display": "Systolic Blood Pressure"
            }
          ]
        },
        "subject": {
          "reference": "Patient/Patient-6534",
          "display": "Jeanette Ramona Pugh"
        },
        "context": {
          "reference": "Encounter/Encounter-3788",
          "display": "DRR_Encounter"
        },
        "effectiveDateTime": "2017-05-11T00:00:00-04:00",
        "performer": [
          {
            "reference": "Practitioner/Practitioner-2531",
            "display": "Tracy Hampton Boone MD"
          }
        ],
        "valueQuantity": {
          "value": 122.39492479302008,
          "unit": "mmHg"
        }
      },
      "request": {
        "method": "PUT",
        "url": "http://localhost:8080/cqf-ruler/baseDstu3/Observation/Observation-674295"
      }
    },
    {
      "fullUrl": "http://localhost:8080/cqf-ruler/baseDstu3/Observation/Observation-674296",
      "resource": {
        "resourceType": "Observation",
        "id": "Observation-674296",
        "status": "final",
        "code": {
          "coding": [
            {
              "system": "http://loinc.org",
              "code": "8453-3",
              "display": "Diastolic Blood Pressure"
            }
          ]
        },
        "subject": {
          "reference": "Patient/Patient-6534",
          "display": "Jeanette Ramona Pugh"
        },
        "context": {
          "reference": "Encounter/Encounter-3788",
          "display": "DRR_Encounter"
        },
        "effectiveDateTime": "2017-05-11T00:00:00-04:00",
        "performer": [
          {
            "reference": "Practitioner/Practitioner-2531",
            "display": "Tracy Hampton Boone MD"
          }
        ],
        "valueQuantity": {
          "value": 101.96870627001606,
          "unit": "mmHg"
        }
      },
      "request": {
        "method": "PUT",
        "url": "http://localhost:8080/cqf-ruler/baseDstu3/Observation/Observation-674296"
      }
    },
    {
      "fullUrl": "http://localhost:8080/cqf-ruler/baseDstu3/DiagnosticReport/DiagnosticReport-674290",
      "resource": {
        "resourceType": "DiagnosticReport",
        "id": "DiagnosticReport-674290",
        "meta": {
          "profile": [
            "http://hl7.org/fhir/us/hedis/StructureDefinition/hedis-diagnosticreport"
          ]
        },
        "status": "final",
        "category": {
          "coding": [
            {
              "system": "http://hl7.org/fhir/ValueSet/diagnostic-service-sections",
              "code": "LAB",
              "display": "Laboratory"
            }
          ]
        },
        "code": {
          "coding": [
            {
              "system": "http://loinc.org",
              "code": "8716-3",
              "display": "Vital Signs Panel"
            }
          ]
        },
        "subject": {
          "reference": "Patient/Patient-6534",
          "display": "Jeanette Ramona Pugh"
        },
        "context": {
          "reference": "Encounter/Encounter-3788",
          "display": "DRR_Encounter"
        },
        "effectivePeriod": {
          "start": "2017-05-11T00:00:00-04:00",
          "end": "2017-05-11T00:00:00-04:00"
        },
        "issued": "2017-05-11T00:00:00.000-04:00",
        "result": [
          {
            "reference": "Observation/Observation-674291",
            "display": "Height"
          },
          {
            "reference": "Observation/Observation-674292",
            "display": "Weight"
          },
          {
            "reference": "Observation/Observation-674293",
            "display": "BMI"
          },
          {
            "reference": "Observation/Observation-674294",
            "display": "Temperature"
          },
          {
            "reference": "Observation/Observation-674295",
            "display": "Systolic Blood Pressure"
          },
          {
            "reference": "Observation/Observation-674296",
            "display": "Diastolic Blood Pressure"
          }
        ]
      },
      "request": {
        "method": "PUT",
        "url": "http://localhost:8080/cqf-ruler/baseDstu3/DiagnosticReport/DiagnosticReport-674290"
      }
    }
  ]
}