{
  "resourceType": "Bundle",
  "id": "Samantha-Jo-King-6507-Encounter-2305",
  "type": "transaction",
  "entry": [
    {
      "fullUrl": "http://localhost:8080/cqf-ruler/baseDstu3/Encounter/Encounter-2305",
      "resource": {
        "resourceType": "Encounter",
        "id": "Encounter-2305",
        "status": "finished",
        "class": {
          "system": "http://hl7.org/fhir/encounter-class",
          "code": "outpatient",
          "display": "Inpatient"
        },
        "subject": {
          "reference": "Patient/Patient-6507",
          "display": "Samantha Jo King"
        },
        "participant": [
          {
            "period": {
              "start": "2011-08-07T11:00:00-04:00",
              "end": "2011-08-07T11:00:00-04:00"
            },
            "individual": {
              "reference": "Practitioner/Practitioner-2524",
              "display": "Willie Vincent Riddle MD"
            }
          }
        ],
        "period": {
          "start": "2011-08-07T11:00:00-04:00",
          "end": "2011-08-07T11:00:00-04:00"
        },
        "location": [
          {
            "location": {
              "reference": "Location/Location-1103",
              "display": "Acme Medical Center"
            }
          }
        ],
        "serviceProvider": {
          "reference": "Organization/Organization-1103",
          "display": "Acme Medical Center"
        }
      },
      "request": {
        "method": "PUT",
        "url": "http://localhost:8080/cqf-ruler/baseDstu3/Encounter/Encounter-2305"
      }
    },
    {
      "fullUrl": "http://localhost:8080/cqf-ruler/baseDstu3/Immunization/Immunization-503087",
      "resource": {
        "resourceType": "Immunization",
        "id": "Immunization-503087",
        "status": "completed",
        "notGiven": false,
        "vaccineCode": {
          "coding": [
            {
              "system": "http://hl7.org/fhir/sid/cvx",
              "code": "08",
              "display": "Hep B, adolescent or pediatric"
            }
          ]
        },
        "patient": {
          "reference": "Patient/Patient-6507",
          "display": "Samantha Jo King"
        },
        "date": "2011-08-07T11:00:00-04:00",
        "primarySource": true,
        "location": {
          "reference": "Location/Location-1103",
          "display": "Acme Medical Center"
        },
        "practitioner": [
          {
            "actor": {
              "reference": "Practitioner/Practitioner-2524",
              "display": "Willie Vincent Riddle MD"
            }
          }
        ]
      },
      "request": {
        "method": "PUT",
        "url": "http://localhost:8080/cqf-ruler/baseDstu3/Immunization/Immunization-503087"
      }
    },
    {
      "fullUrl": "http://localhost:8080/cqf-ruler/baseDstu3/Observation/Observation-505532",
      "resource": {
        "resourceType": "Observation",
        "id": "Observation-505532",
        "status": "final",
        "code": {
          "coding": [
            {
              "system": "http://loinc.org",
              "code": "8480-6",
              "display": "Systolic blood pressure"
            }
          ]
        },
        "subject": {
          "reference": "Patient/Patient-6507",
          "display": "Samantha Jo King"
        },
        "context": {
          "reference": "Encounter/Encounter-2305",
          "display": "Wellness Visit"
        },
        "effectivePeriod": {
          "start": "2011-08-07T11:00:00-04:00",
          "end": "2011-08-07T11:00:00-04:00"
        },
        "performer": [
          {
            "reference": "Practitioner/Practitioner-2524",
            "display": "Willie Vincent Riddle MD"
          }
        ],
        "valueQuantity": {
          "value": 133.19974796269557,
          "unit": "mmHg"
        }
      },
      "request": {
        "method": "PUT",
        "url": "http://localhost:8080/cqf-ruler/baseDstu3/Observation/Observation-505532"
      }
    },
    {
      "fullUrl": "http://localhost:8080/cqf-ruler/baseDstu3/Observation/Observation-505533",
      "resource": {
        "resourceType": "Observation",
        "id": "Observation-505533",
        "status": "final",
        "code": {
          "coding": [
            {
              "system": "http://loinc.org",
              "code": "8462-4",
              "display": "Diastolic blood pressure"
            }
          ]
        },
        "subject": {
          "reference": "Patient/Patient-6507",
          "display": "Samantha Jo King"
        },
        "context": {
          "reference": "Encounter/Encounter-2305",
          "display": "Wellness Visit"
        },
        "effectivePeriod": {
          "start": "2011-08-07T11:00:00-04:00",
          "end": "2011-08-07T11:00:00-04:00"
        },
        "performer": [
          {
            "reference": "Practitioner/Practitioner-2524",
            "display": "Willie Vincent Riddle MD"
          }
        ],
        "valueQuantity": {
          "value": 63.40556242692557,
          "unit": "mmHg"
        }
      },
      "request": {
        "method": "PUT",
        "url": "http://localhost:8080/cqf-ruler/baseDstu3/Observation/Observation-505533"
      }
    },
    {
      "fullUrl": "http://localhost:8080/cqf-ruler/baseDstu3/Observation/Observation-505534",
      "resource": {
        "resourceType": "Observation",
        "id": "Observation-505534",
        "status": "final",
        "code": {
          "coding": [
            {
              "system": "http://loinc.org",
              "code": "8302-2",
              "display": "Body Height"
            }
          ]
        },
        "subject": {
          "reference": "Patient/Patient-6507",
          "display": "Samantha Jo King"
        },
        "context": {
          "reference": "Encounter/Encounter-2305",
          "display": "Wellness Visit"
        },
        "effectivePeriod": {
          "start": "2011-08-07T11:00:00-04:00",
          "end": "2011-08-07T11:00:00-04:00"
        },
        "performer": [
          {
            "reference": "Practitioner/Practitioner-2524",
            "display": "Willie Vincent Riddle MD"
          }
        ],
        "valueQuantity": {
          "value": 51.7,
          "unit": "cm"
        }
      },
      "request": {
        "method": "PUT",
        "url": "http://localhost:8080/cqf-ruler/baseDstu3/Observation/Observation-505534"
      }
    },
    {
      "fullUrl": "http://localhost:8080/cqf-ruler/baseDstu3/Observation/Observation-505535",
      "resource": {
        "resourceType": "Observation",
        "id": "Observation-505535",
        "status": "final",
        "code": {
          "coding": [
            {
              "system": "http://loinc.org",
              "code": "29463-7",
              "display": "Body Weight"
            }
          ]
        },
        "subject": {
          "reference": "Patient/Patient-6507",
          "display": "Samantha Jo King"
        },
        "context": {
          "reference": "Encounter/Encounter-2305",
          "display": "Wellness Visit"
        },
        "effectivePeriod": {
          "start": "2011-08-07T11:00:00-04:00",
          "end": "2011-08-07T11:00:00-04:00"
        },
        "performer": [
          {
            "reference": "Practitioner/Practitioner-2524",
            "display": "Willie Vincent Riddle MD"
          }
        ],
        "valueQuantity": {
          "value": 3.8,
          "unit": "kg"
        }
      },
      "request": {
        "method": "PUT",
        "url": "http://localhost:8080/cqf-ruler/baseDstu3/Observation/Observation-505535"
      }
    },
    {
      "fullUrl": "http://localhost:8080/cqf-ruler/baseDstu3/Observation/Observation-505538",
      "resource": {
        "resourceType": "Observation",
        "id": "Observation-505538",
        "status": "final",
        "category": [
          {
            "coding": [
              {
                "system": "http://hl7.org/fhir/observation-category",
                "code": "vital-signs",
                "display": "vital-signs"
              }
            ]
          }
        ],
        "code": {
          "coding": [
            {
              "system": "http://loinc.org",
              "code": "55284-4",
              "display": "Blood Pressure"
            }
          ]
        },
        "subject": {
          "reference": "Patient/Patient-6507",
          "display": "Samantha Jo King"
        },
        "context": {
          "reference": "Encounter/Encounter-2305",
          "display": "Wellness Visit"
        },
        "effectivePeriod": {
          "start": "2011-08-07T11:00:00-04:00",
          "end": "2011-08-07T11:00:00-04:00"
        },
        "valueQuantity": {
          "value": 63.40556242692557,
          "unit": "mmHg"
        },
        "component": [
          {
            "code": {
              "coding": [
                {
                  "system": "http://loinc.org",
                  "code": "8480-6",
                  "display": "Systolic Blood Pressure"
                }
              ]
            }
          },
          {
            "code": {
              "coding": [
                {
                  "system": "http://loinc.org",
                  "code": "8462-4",
                  "display": "Diastolic Blood Pressure"
                }
              ]
            }
          }
        ]
      },
      "request": {
        "method": "PUT",
        "url": "http://localhost:8080/cqf-ruler/baseDstu3/Observation/Observation-505538"
      }
    },
    {
      "fullUrl": "http://localhost:8080/cqf-ruler/baseDstu3/Observation/Observation-505540",
      "resource": {
        "resourceType": "Observation",
        "id": "Observation-505540",
        "status": "final",
        "code": {
          "coding": [
            {
              "system": "http://loinc.org",
              "code": "8302-2",
              "display": "Height"
            }
          ]
        },
        "subject": {
          "reference": "Patient/Patient-6507",
          "display": "Samantha Jo King"
        },
        "context": {
          "reference": "Encounter/Encounter-2305",
          "display": "Wellness Visit"
        },
        "effectiveDateTime": "2011-08-07T11:00:00-04:00",
        "performer": [
          {
            "reference": "Practitioner/Practitioner-2524",
            "display": "Willie Vincent Riddle MD"
          }
        ],
        "valueQuantity": {
          "value": 51.7,
          "unit": "cm"
        }
      },
      "request": {
        "method": "PUT",
        "url": "http://localhost:8080/cqf-ruler/baseDstu3/Observation/Observation-505540"
      }
    },
    {
      "fullUrl": "http://localhost:8080/cqf-ruler/baseDstu3/Observation/Observation-505541",
      "resource": {
        "resourceType": "Observation",
        "id": "Observation-505541",
        "status": "final",
        "code": {
          "coding": [
            {
              "system": "http://loinc.org",
              "code": "29463-7",
              "display": "Weight"
            }
          ]
        },
        "subject": {
          "reference": "Patient/Patient-6507",
          "display": "Samantha Jo King"
        },
        "context": {
          "reference": "Encounter/Encounter-2305",
          "display": "Wellness Visit"
        },
        "effectiveDateTime": "2011-08-07T11:00:00-04:00",
        "performer": [
          {
            "reference": "Practitioner/Practitioner-2524",
            "display": "Willie Vincent Riddle MD"
          }
        ],
        "valueQuantity": {
          "value": 3.8,
          "unit": "kg"
        }
      },
      "request": {
        "method": "PUT",
        "url": "http://localhost:8080/cqf-ruler/baseDstu3/Observation/Observation-505541"
      }
    },
    {
      "fullUrl": "http://localhost:8080/cqf-ruler/baseDstu3/Observation/Observation-505542",
      "resource": {
        "resourceType": "Observation",
        "id": "Observation-505542",
        "status": "final",
        "code": {
          "coding": [
            {
              "system": "http://loinc.org",
              "code": "39156-5",
              "display": "BMI"
            }
          ]
        },
        "subject": {
          "reference": "Patient/Patient-6507",
          "display": "Samantha Jo King"
        },
        "context": {
          "reference": "Encounter/Encounter-2305",
          "display": "Wellness Visit"
        },
        "effectiveDateTime": "2011-08-07T11:00:00-04:00",
        "performer": [
          {
            "reference": "Practitioner/Practitioner-2524",
            "display": "Willie Vincent Riddle MD"
          }
        ],
        "valueQuantity": {
          "value": 14.216821492841081,
          "unit": "kg/m2"
        }
      },
      "request": {
        "method": "PUT",
        "url": "http://localhost:8080/cqf-ruler/baseDstu3/Observation/Observation-505542"
      }
    },
    {
      "fullUrl": "http://localhost:8080/cqf-ruler/baseDstu3/Observation/Observation-505543",
      "resource": {
        "resourceType": "Observation",
        "id": "Observation-505543",
        "status": "final",
        "code": {
          "coding": [
            {
              "system": "http://loinc.org",
              "code": "8310-5",
              "display": "Temperature"
            }
          ]
        },
        "subject": {
          "reference": "Patient/Patient-6507",
          "display": "Samantha Jo King"
        },
        "context": {
          "reference": "Encounter/Encounter-2305",
          "display": "Wellness Visit"
        },
        "effectiveDateTime": "2011-08-07T11:00:00-04:00",
        "performer": [
          {
            "reference": "Practitioner/Practitioner-2524",
            "display": "Willie Vincent Riddle MD"
          }
        ],
        "valueQuantity": {
          "value": 37.0,
          "unit": "C"
        }
      },
      "request": {
        "method": "PUT",
        "url": "http://localhost:8080/cqf-ruler/baseDstu3/Observation/Observation-505543"
      }
    },
    {
      "fullUrl": "http://localhost:8080/cqf-ruler/baseDstu3/Observation/Observation-505544",
      "resource": {
        "resourceType": "Observation",
        "id": "Observation-505544",
        "status": "final",
        "code": {
          "coding": [
            {
              "system": "http://loinc.org",
              "code": "8459-0",
              "display": "Systolic Blood Pressure"
            }
          ]
        },
        "subject": {
          "reference": "Patient/Patient-6507",
          "display": "Samantha Jo King"
        },
        "context": {
          "reference": "Encounter/Encounter-2305",
          "display": "Wellness Visit"
        },
        "effectiveDateTime": "2011-08-07T11:00:00-04:00",
        "performer": [
          {
            "reference": "Practitioner/Practitioner-2524",
            "display": "Willie Vincent Riddle MD"
          }
        ],
        "valueQuantity": {
          "value": 133.19974796269557,
          "unit": "mmHg"
        }
      },
      "request": {
        "method": "PUT",
        "url": "http://localhost:8080/cqf-ruler/baseDstu3/Observation/Observation-505544"
      }
    },
    {
      "fullUrl": "http://localhost:8080/cqf-ruler/baseDstu3/Observation/Observation-505545",
      "resource": {
        "resourceType": "Observation",
        "id": "Observation-505545",
        "status": "final",
        "code": {
          "coding": [
            {
              "system": "http://loinc.org",
              "code": "8453-3",
              "display": "Diastolic Blood Pressure"
            }
          ]
        },
        "subject": {
          "reference": "Patient/Patient-6507",
          "display": "Samantha Jo King"
        },
        "context": {
          "reference": "Encounter/Encounter-2305",
          "display": "Wellness Visit"
        },
        "effectiveDateTime": "2011-08-07T11:00:00-04:00",
        "performer": [
          {
            "reference": "Practitioner/Practitioner-2524",
            "display": "Willie Vincent Riddle MD"
          }
        ],
        "valueQuantity": {
          "value": 63.40556242692557,
          "unit": "mmHg"
        }
      },
      "request": {
        "method": "PUT",
        "url": "http://localhost:8080/cqf-ruler/baseDstu3/Observation/Observation-505545"
      }
    },
    {
      "fullUrl": "http://localhost:8080/cqf-ruler/baseDstu3/DiagnosticReport/DiagnosticReport-505539",
      "resource": {
        "resourceType": "DiagnosticReport",
        "id": "DiagnosticReport-505539",
        "status": "final",
        "code": {
          "coding": [
            {
              "system": "http://loinc.org",
              "code": "8716-3",
              "display": "Vital Signs Panel"
            }
          ]
        },
        "subject": {
          "reference": "Patient/Patient-6507",
          "display": "Samantha Jo King"
        },
        "context": {
          "reference": "Encounter/Encounter-2305",
          "display": "Wellness Visit"
        },
        "effectivePeriod": {
          "start": "2011-08-07T11:00:00-04:00",
          "end": "2011-08-07T11:00:00-04:00"
        },
        "issued": "2011-08-07T11:00:00.000-04:00",
        "result": [
          {
            "reference": "Observation/Observation-505540",
            "display": "Height"
          },
          {
            "reference": "Observation/Observation-505541",
            "display": "Weight"
          },
          {
            "reference": "Observation/Observation-505542",
            "display": "BMI"
          },
          {
            "reference": "Observation/Observation-505543",
            "display": "Temperature"
          },
          {
            "reference": "Observation/Observation-505544",
            "display": "Systolic Blood Pressure"
          },
          {
            "reference": "Observation/Observation-505545",
            "display": "Diastolic Blood Pressure"
          }
        ]
      },
      "request": {
        "method": "PUT",
        "url": "http://localhost:8080/cqf-ruler/baseDstu3/DiagnosticReport/DiagnosticReport-505539"
      }
    }
  ]
}