{
  "resourceType": "Bundle",
  "id": "Samantha-Jo-King-6507-Encounter-2653",
  "type": "transaction",
  "entry": [
    {
      "fullUrl": "http://localhost:8080/cqf-ruler/baseDstu3Encounter/Encounter-2653",
      "resource": {
        "resourceType": "Encounter",
        "id": "Encounter-2653",
        "status": "finished",
        "class": {
          "system": "http://hl7.org/fhir/encounter-class",
          "code": "outpatient",
          "display": "Inpatient"
        },
        "subject": {
          "reference": "Patient/Patient-6507",
          "display": "Samantha Jo King"
        },
        "participant": [
          {
            "period": {
              "start": "2014-12-28T07:00:00-05:00",
              "end": "2014-12-28T07:00:00-05:00"
            },
            "individual": {
              "reference": "Practitioner/Practitioner-2524",
              "display": "Willie Vincent Riddle MD"
            }
          }
        ],
        "period": {
          "start": "2014-12-28T07:00:00-05:00",
          "end": "2014-12-28T07:00:00-05:00"
        },
        "location": [
          {
            "location": {
              "reference": "Location/Location-1103",
              "display": "Acme Medical Center"
            }
          }
        ],
        "serviceProvider": {
          "reference": "Organization/Organization-1103",
          "display": "Acme Medical Center"
        }
      },
      "request": {
        "method": "PUT",
        "url": "http://localhost:8080/cqf-ruler/baseDstu3Encounter/Encounter-2653"
      }
    },
    {
      "fullUrl": "http://localhost:8080/cqf-ruler/baseDstu3Immunization/Immunization-562748",
      "resource": {
        "resourceType": "Immunization",
        "id": "Immunization-562748",
        "status": "completed",
        "notGiven": false,
        "vaccineCode": {
          "coding": [
            {
              "system": "http://hl7.org/fhir/sid/cvx",
              "code": "140",
              "display": "Influenza, seasonal, injectable, preservative free"
            }
          ]
        },
        "patient": {
          "reference": "Patient/Patient-6507",
          "display": "Samantha Jo King"
        },
        "date": "2014-12-28T07:00:00-05:00",
        "primarySource": true,
        "location": {
          "reference": "Location/Location-1103",
          "display": "Acme Medical Center"
        },
        "practitioner": [
          {
            "actor": {
              "reference": "Practitioner/Practitioner-2524",
              "display": "Willie Vincent Riddle MD"
            }
          }
        ]
      },
      "request": {
        "method": "PUT",
        "url": "http://localhost:8080/cqf-ruler/baseDstu3Immunization/Immunization-562748"
      }
    },
    {
      "fullUrl": "http://localhost:8080/cqf-ruler/baseDstu3Immunization/Immunization-562749",
      "resource": {
        "resourceType": "Immunization",
        "id": "Immunization-562749",
        "status": "completed",
        "notGiven": false,
        "vaccineCode": {
          "coding": [
            {
              "system": "http://hl7.org/fhir/sid/cvx",
              "code": "83",
              "display": "Hep A, ped/adol, 2 dose"
            }
          ]
        },
        "patient": {
          "reference": "Patient/Patient-6507",
          "display": "Samantha Jo King"
        },
        "date": "2014-12-28T07:00:00-05:00",
        "primarySource": true,
        "location": {
          "reference": "Location/Location-1103",
          "display": "Acme Medical Center"
        },
        "practitioner": [
          {
            "actor": {
              "reference": "Practitioner/Practitioner-2524",
              "display": "Willie Vincent Riddle MD"
            }
          }
        ]
      },
      "request": {
        "method": "PUT",
        "url": "http://localhost:8080/cqf-ruler/baseDstu3Immunization/Immunization-562749"
      }
    },
    {
      "fullUrl": "http://localhost:8080/cqf-ruler/baseDstu3Observation/Observation-575593",
      "resource": {
        "resourceType": "Observation",
        "id": "Observation-575593",
        "status": "final",
        "code": {
          "coding": [
            {
              "system": "http://loinc.org",
              "code": "8302-2",
              "display": "Height"
            }
          ]
        },
        "subject": {
          "reference": "Patient/Patient-6507",
          "display": "Samantha Jo King"
        },
        "context": {
          "reference": "Encounter/Encounter-2653",
          "display": "Wellness Visit"
        },
        "effectiveDateTime": "2014-12-28T07:00:00-05:00",
        "performer": [
          {
            "reference": "Practitioner/Practitioner-2524",
            "display": "Willie Vincent Riddle MD"
          }
        ],
        "valueQuantity": {
          "value": 97.1,
          "unit": "cm"
        }
      },
      "request": {
        "method": "PUT",
        "url": "http://localhost:8080/cqf-ruler/baseDstu3Observation/Observation-575593"
      }
    },
    {
      "fullUrl": "http://localhost:8080/cqf-ruler/baseDstu3Observation/Observation-575594",
      "resource": {
        "resourceType": "Observation",
        "id": "Observation-575594",
        "status": "final",
        "code": {
          "coding": [
            {
              "system": "http://loinc.org",
              "code": "29463-7",
              "display": "Weight"
            }
          ]
        },
        "subject": {
          "reference": "Patient/Patient-6507",
          "display": "Samantha Jo King"
        },
        "context": {
          "reference": "Encounter/Encounter-2653",
          "display": "Wellness Visit"
        },
        "effectiveDateTime": "2014-12-28T07:00:00-05:00",
        "performer": [
          {
            "reference": "Practitioner/Practitioner-2524",
            "display": "Willie Vincent Riddle MD"
          }
        ],
        "valueQuantity": {
          "value": 0.0,
          "unit": "kg"
        }
      },
      "request": {
        "method": "PUT",
        "url": "http://localhost:8080/cqf-ruler/baseDstu3Observation/Observation-575594"
      }
    },
    {
      "fullUrl": "http://localhost:8080/cqf-ruler/baseDstu3Observation/Observation-575595",
      "resource": {
        "resourceType": "Observation",
        "id": "Observation-575595",
        "status": "final",
        "code": {
          "coding": [
            {
              "system": "http://loinc.org",
              "code": "39156-5",
              "display": "BMI"
            }
          ]
        },
        "subject": {
          "reference": "Patient/Patient-6507",
          "display": "Samantha Jo King"
        },
        "context": {
          "reference": "Encounter/Encounter-2653",
          "display": "Wellness Visit"
        },
        "effectiveDateTime": "2014-12-28T07:00:00-05:00",
        "performer": [
          {
            "reference": "Practitioner/Practitioner-2524",
            "display": "Willie Vincent Riddle MD"
          }
        ],
        "valueQuantity": {
          "value": 0.0,
          "unit": "kg/m2"
        }
      },
      "request": {
        "method": "PUT",
        "url": "http://localhost:8080/cqf-ruler/baseDstu3Observation/Observation-575595"
      }
    },
    {
      "fullUrl": "http://localhost:8080/cqf-ruler/baseDstu3Observation/Observation-575596",
      "resource": {
        "resourceType": "Observation",
        "id": "Observation-575596",
        "status": "final",
        "code": {
          "coding": [
            {
              "system": "http://loinc.org",
              "code": "8310-5",
              "display": "Temperature"
            }
          ]
        },
        "subject": {
          "reference": "Patient/Patient-6507",
          "display": "Samantha Jo King"
        },
        "context": {
          "reference": "Encounter/Encounter-2653",
          "display": "Wellness Visit"
        },
        "effectiveDateTime": "2014-12-28T07:00:00-05:00",
        "performer": [
          {
            "reference": "Practitioner/Practitioner-2524",
            "display": "Willie Vincent Riddle MD"
          }
        ],
        "valueQuantity": {
          "value": 37.0,
          "unit": "C"
        }
      },
      "request": {
        "method": "PUT",
        "url": "http://localhost:8080/cqf-ruler/baseDstu3Observation/Observation-575596"
      }
    },
    {
      "fullUrl": "http://localhost:8080/cqf-ruler/baseDstu3Observation/Observation-575597",
      "resource": {
        "resourceType": "Observation",
        "id": "Observation-575597",
        "status": "final",
        "code": {
          "coding": [
            {
              "system": "http://loinc.org",
              "code": "8459-0",
              "display": "Systolic Blood Pressure"
            }
          ]
        },
        "subject": {
          "reference": "Patient/Patient-6507",
          "display": "Samantha Jo King"
        },
        "context": {
          "reference": "Encounter/Encounter-2653",
          "display": "Wellness Visit"
        },
        "effectiveDateTime": "2014-12-28T07:00:00-05:00",
        "performer": [
          {
            "reference": "Practitioner/Practitioner-2524",
            "display": "Willie Vincent Riddle MD"
          }
        ],
        "valueQuantity": {
          "value": 101.09486045786163,
          "unit": "mmHg"
        }
      },
      "request": {
        "method": "PUT",
        "url": "http://localhost:8080/cqf-ruler/baseDstu3Observation/Observation-575597"
      }
    },
    {
      "fullUrl": "http://localhost:8080/cqf-ruler/baseDstu3Observation/Observation-575598",
      "resource": {
        "resourceType": "Observation",
        "id": "Observation-575598",
        "status": "final",
        "code": {
          "coding": [
            {
              "system": "http://loinc.org",
              "code": "8453-3",
              "display": "Diastolic Blood Pressure"
            }
          ]
        },
        "subject": {
          "reference": "Patient/Patient-6507",
          "display": "Samantha Jo King"
        },
        "context": {
          "reference": "Encounter/Encounter-2653",
          "display": "Wellness Visit"
        },
        "effectiveDateTime": "2014-12-28T07:00:00-05:00",
        "performer": [
          {
            "reference": "Practitioner/Practitioner-2524",
            "display": "Willie Vincent Riddle MD"
          }
        ],
        "valueQuantity": {
          "value": 82.51060623710124,
          "unit": "mmHg"
        }
      },
      "request": {
        "method": "PUT",
        "url": "http://localhost:8080/cqf-ruler/baseDstu3Observation/Observation-575598"
      }
    },
    {
      "fullUrl": "http://localhost:8080/cqf-ruler/baseDstu3DiagnosticReport/DiagnosticReport-575592",
      "resource": {
        "resourceType": "DiagnosticReport",
        "id": "DiagnosticReport-575592",
        "status": "final",
        "code": {
          "coding": [
            {
              "system": "http://loinc.org",
              "code": "8716-3",
              "display": "Vital Signs Panel"
            }
          ]
        },
        "subject": {
          "reference": "Patient/Patient-6507",
          "display": "Samantha Jo King"
        },
        "context": {
          "reference": "Encounter/Encounter-2653",
          "display": "Wellness Visit"
        },
        "effectivePeriod": {
          "start": "2014-12-28T07:00:00-05:00",
          "end": "2014-12-28T07:00:00-05:00"
        },
        "issued": "2014-12-28T07:00:00.000-05:00",
        "result": [
          {
            "reference": "Observation/Observation-575593",
            "display": "Height"
          },
          {
            "reference": "Observation/Observation-575594",
            "display": "Weight"
          },
          {
            "reference": "Observation/Observation-575595",
            "display": "BMI"
          },
          {
            "reference": "Observation/Observation-575596",
            "display": "Temperature"
          },
          {
            "reference": "Observation/Observation-575597",
            "display": "Systolic Blood Pressure"
          },
          {
            "reference": "Observation/Observation-575598",
            "display": "Diastolic Blood Pressure"
          }
        ]
      },
      "request": {
        "method": "PUT",
        "url": "http://localhost:8080/cqf-ruler/baseDstu3DiagnosticReport/DiagnosticReport-575592"
      }
    }
  ]
}