{
  "resourceType": "Bundle",
  "id": "Samantha-Jo-King-6507-Encounter-2274",
  "type": "transaction",
  "entry": [
    {
      "fullUrl": "http://localhost:8080/cqf-ruler/baseDstu3Encounter/Encounter-2274",
      "resource": {
        "resourceType": "Encounter",
        "id": "Encounter-2274",
        "status": "finished",
        "class": {
          "system": "http://hl7.org/fhir/encounter-class",
          "code": "outpatient",
          "display": "Inpatient"
        },
        "subject": {
          "reference": "Patient/Patient-6507",
          "display": "Samantha Jo King"
        },
        "participant": [
          {
            "period": {
              "start": "2011-07-30T06:00:00-04:00",
              "end": "2011-07-30T06:00:00-04:00"
            },
            "individual": {
              "reference": "Practitioner/Practitioner-2524",
              "display": "Willie Vincent Riddle MD"
            }
          }
        ],
        "period": {
          "start": "2011-07-30T06:00:00-04:00",
          "end": "2011-07-30T06:00:00-04:00"
        },
        "location": [
          {
            "location": {
              "reference": "Location/Location-1103",
              "display": "Acme Medical Center"
            }
          }
        ],
        "serviceProvider": {
          "reference": "Organization/Organization-1103",
          "display": "Acme Medical Center"
        }
      },
      "request": {
        "method": "PUT",
        "url": "http://localhost:8080/cqf-ruler/baseDstu3Encounter/Encounter-2274"
      }
    },
    {
      "fullUrl": "http://localhost:8080/cqf-ruler/baseDstu3Observation/Observation-488060",
      "resource": {
        "resourceType": "Observation",
        "id": "Observation-488060",
        "status": "final",
        "code": {
          "coding": [
            {
              "system": "http://loinc.org",
              "code": "8302-2",
              "display": "Height"
            }
          ]
        },
        "subject": {
          "reference": "Patient/Patient-6507",
          "display": "Samantha Jo King"
        },
        "context": {
          "reference": "Encounter/Encounter-2274",
          "display": "Wellness Visit"
        },
        "effectiveDateTime": "2011-07-30T06:00:00-04:00",
        "performer": [
          {
            "reference": "Practitioner/Practitioner-2524",
            "display": "Willie Vincent Riddle MD"
          }
        ],
        "valueQuantity": {
          "value": 51.7,
          "unit": "cm"
        }
      },
      "request": {
        "method": "PUT",
        "url": "http://localhost:8080/cqf-ruler/baseDstu3Observation/Observation-488060"
      }
    },
    {
      "fullUrl": "http://localhost:8080/cqf-ruler/baseDstu3Observation/Observation-488061",
      "resource": {
        "resourceType": "Observation",
        "id": "Observation-488061",
        "status": "final",
        "code": {
          "coding": [
            {
              "system": "http://loinc.org",
              "code": "29463-7",
              "display": "Weight"
            }
          ]
        },
        "subject": {
          "reference": "Patient/Patient-6507",
          "display": "Samantha Jo King"
        },
        "context": {
          "reference": "Encounter/Encounter-2274",
          "display": "Wellness Visit"
        },
        "effectiveDateTime": "2011-07-30T06:00:00-04:00",
        "performer": [
          {
            "reference": "Practitioner/Practitioner-2524",
            "display": "Willie Vincent Riddle MD"
          }
        ],
        "valueQuantity": {
          "value": 0.0,
          "unit": "kg"
        }
      },
      "request": {
        "method": "PUT",
        "url": "http://localhost:8080/cqf-ruler/baseDstu3Observation/Observation-488061"
      }
    },
    {
      "fullUrl": "http://localhost:8080/cqf-ruler/baseDstu3Observation/Observation-488062",
      "resource": {
        "resourceType": "Observation",
        "id": "Observation-488062",
        "status": "final",
        "code": {
          "coding": [
            {
              "system": "http://loinc.org",
              "code": "39156-5",
              "display": "BMI"
            }
          ]
        },
        "subject": {
          "reference": "Patient/Patient-6507",
          "display": "Samantha Jo King"
        },
        "context": {
          "reference": "Encounter/Encounter-2274",
          "display": "Wellness Visit"
        },
        "effectiveDateTime": "2011-07-30T06:00:00-04:00",
        "performer": [
          {
            "reference": "Practitioner/Practitioner-2524",
            "display": "Willie Vincent Riddle MD"
          }
        ],
        "valueQuantity": {
          "value": 0.0,
          "unit": "kg/m2"
        }
      },
      "request": {
        "method": "PUT",
        "url": "http://localhost:8080/cqf-ruler/baseDstu3Observation/Observation-488062"
      }
    },
    {
      "fullUrl": "http://localhost:8080/cqf-ruler/baseDstu3Observation/Observation-488063",
      "resource": {
        "resourceType": "Observation",
        "id": "Observation-488063",
        "status": "final",
        "code": {
          "coding": [
            {
              "system": "http://loinc.org",
              "code": "8310-5",
              "display": "Temperature"
            }
          ]
        },
        "subject": {
          "reference": "Patient/Patient-6507",
          "display": "Samantha Jo King"
        },
        "context": {
          "reference": "Encounter/Encounter-2274",
          "display": "Wellness Visit"
        },
        "effectiveDateTime": "2011-07-30T06:00:00-04:00",
        "performer": [
          {
            "reference": "Practitioner/Practitioner-2524",
            "display": "Willie Vincent Riddle MD"
          }
        ],
        "valueQuantity": {
          "value": 37.0,
          "unit": "C"
        }
      },
      "request": {
        "method": "PUT",
        "url": "http://localhost:8080/cqf-ruler/baseDstu3Observation/Observation-488063"
      }
    },
    {
      "fullUrl": "http://localhost:8080/cqf-ruler/baseDstu3Observation/Observation-488064",
      "resource": {
        "resourceType": "Observation",
        "id": "Observation-488064",
        "status": "final",
        "code": {
          "coding": [
            {
              "system": "http://loinc.org",
              "code": "8459-0",
              "display": "Systolic Blood Pressure"
            }
          ]
        },
        "subject": {
          "reference": "Patient/Patient-6507",
          "display": "Samantha Jo King"
        },
        "context": {
          "reference": "Encounter/Encounter-2274",
          "display": "Wellness Visit"
        },
        "effectiveDateTime": "2011-07-30T06:00:00-04:00",
        "performer": [
          {
            "reference": "Practitioner/Practitioner-2524",
            "display": "Willie Vincent Riddle MD"
          }
        ],
        "valueQuantity": {
          "value": 100.97678844928242,
          "unit": "mmHg"
        }
      },
      "request": {
        "method": "PUT",
        "url": "http://localhost:8080/cqf-ruler/baseDstu3Observation/Observation-488064"
      }
    },
    {
      "fullUrl": "http://localhost:8080/cqf-ruler/baseDstu3Observation/Observation-488065",
      "resource": {
        "resourceType": "Observation",
        "id": "Observation-488065",
        "status": "final",
        "code": {
          "coding": [
            {
              "system": "http://loinc.org",
              "code": "8453-3",
              "display": "Diastolic Blood Pressure"
            }
          ]
        },
        "subject": {
          "reference": "Patient/Patient-6507",
          "display": "Samantha Jo King"
        },
        "context": {
          "reference": "Encounter/Encounter-2274",
          "display": "Wellness Visit"
        },
        "effectiveDateTime": "2011-07-30T06:00:00-04:00",
        "performer": [
          {
            "reference": "Practitioner/Practitioner-2524",
            "display": "Willie Vincent Riddle MD"
          }
        ],
        "valueQuantity": {
          "value": 81.91029960241262,
          "unit": "mmHg"
        }
      },
      "request": {
        "method": "PUT",
        "url": "http://localhost:8080/cqf-ruler/baseDstu3Observation/Observation-488065"
      }
    },
    {
      "fullUrl": "http://localhost:8080/cqf-ruler/baseDstu3DiagnosticReport/DiagnosticReport-488059",
      "resource": {
        "resourceType": "DiagnosticReport",
        "id": "DiagnosticReport-488059",
        "status": "final",
        "code": {
          "coding": [
            {
              "system": "http://loinc.org",
              "code": "8716-3",
              "display": "Vital Signs Panel"
            }
          ]
        },
        "subject": {
          "reference": "Patient/Patient-6507",
          "display": "Samantha Jo King"
        },
        "context": {
          "reference": "Encounter/Encounter-2274",
          "display": "Wellness Visit"
        },
        "effectivePeriod": {
          "start": "2011-07-30T06:00:00-04:00",
          "end": "2011-07-30T06:00:00-04:00"
        },
        "issued": "2011-07-30T06:00:00.000-04:00",
        "result": [
          {
            "reference": "Observation/Observation-488060",
            "display": "Height"
          },
          {
            "reference": "Observation/Observation-488061",
            "display": "Weight"
          },
          {
            "reference": "Observation/Observation-488062",
            "display": "BMI"
          },
          {
            "reference": "Observation/Observation-488063",
            "display": "Temperature"
          },
          {
            "reference": "Observation/Observation-488064",
            "display": "Systolic Blood Pressure"
          },
          {
            "reference": "Observation/Observation-488065",
            "display": "Diastolic Blood Pressure"
          }
        ]
      },
      "request": {
        "method": "PUT",
        "url": "http://localhost:8080/cqf-ruler/baseDstu3DiagnosticReport/DiagnosticReport-488059"
      }
    }
  ]
}