{
  "resourceType": "Bundle",
  "id": "Billy Robert Chen-1124-Encounter-2334",
  "type": "transaction",
  "entry": [
    {
      "fullUrl": "http://localhost:8080/cqf-ruler/baseDstu3/Encounter/Encounter-2334",
      "resource": {
        "resourceType": "Encounter",
        "id": "Encounter-2334",
        "status": "finished",
        "class": {
          "system": "http://hl7.org/fhir/encounter-class",
          "code": "outpatient",
          "display": "Inpatient"
        },
        "subject": {
          "reference": "Patient/Patient-1124",
          "display": "Billy Robert Chen"
        },
        "participant": [
          {
            "period": {
              "start": "2011-11-16T19:00:00-05:00",
              "end": "2011-11-16T19:00:00-05:00"
            },
            "individual": {
              "reference": "Practitioner/Practitioner-2520",
              "display": "Kimberly Christy Ashley MD"
            }
          }
        ],
        "period": {
          "start": "2011-11-16T19:00:00-05:00",
          "end": "2011-11-16T19:00:00-05:00"
        },
        "location": [
          {
            "location": {
              "reference": "Location/Location-1105",
              "display": "Bayside Medical Group"
            }
          }
        ],
        "serviceProvider": {
          "reference": "Organization/Organization-1105",
          "display": "Bayside Medical Group"
        }
      },
      "request": {
        "method": "PUT",
        "url": "http://localhost:8080/cqf-ruler/baseDstu3/Encounter/Encounter-2334"
      }
    },
    {
      "fullUrl": "http://localhost:8080/cqf-ruler/baseDstu3/Observation/Observation-494732",
      "resource": {
        "resourceType": "Observation",
        "id": "Observation-494732",
        "status": "final",
        "code": {
          "coding": [
            {
              "system": "http://loinc.org",
              "code": "8302-2",
              "display": "Height"
            }
          ]
        },
        "subject": {
          "reference": "Patient/Patient-1124",
          "display": "Billy Robert Chen"
        },
        "context": {
          "reference": "Encounter/Encounter-2334",
          "display": "Bayside Medical Group"
        },
        "effectiveDateTime": "2011-11-16T19:00:00-05:00",
        "performer": [
          {
            "reference": "Practitioner/Practitioner-2520",
            "display": "Kimberly Christy Ashley MD"
          }
        ],
        "valueQuantity": {
          "value": 46.6,
          "unit": "cm"
        }
      },
      "request": {
        "method": "PUT",
        "url": "http://localhost:8080/cqf-ruler/baseDstu3/Observation/Observation-494732"
      }
    },
    {
      "fullUrl": "http://localhost:8080/cqf-ruler/baseDstu3/Observation/Observation-494733",
      "resource": {
        "resourceType": "Observation",
        "id": "Observation-494733",
        "status": "final",
        "code": {
          "coding": [
            {
              "system": "http://loinc.org",
              "code": "29463-7",
              "display": "Weight"
            }
          ]
        },
        "subject": {
          "reference": "Patient/Patient-1124",
          "display": "Billy Robert Chen"
        },
        "context": {
          "reference": "Encounter/Encounter-2334",
          "display": "Bayside Medical Group"
        },
        "effectiveDateTime": "2011-11-16T19:00:00-05:00",
        "performer": [
          {
            "reference": "Practitioner/Practitioner-2520",
            "display": "Kimberly Christy Ashley MD"
          }
        ],
        "valueQuantity": {
          "value": 0.0,
          "unit": "kg"
        }
      },
      "request": {
        "method": "PUT",
        "url": "http://localhost:8080/cqf-ruler/baseDstu3/Observation/Observation-494733"
      }
    },
    {
      "fullUrl": "http://localhost:8080/cqf-ruler/baseDstu3/Observation/Observation-494734",
      "resource": {
        "resourceType": "Observation",
        "id": "Observation-494734",
        "status": "final",
        "code": {
          "coding": [
            {
              "system": "http://loinc.org",
              "code": "39156-5",
              "display": "BMI"
            }
          ]
        },
        "subject": {
          "reference": "Patient/Patient-1124",
          "display": "Billy Robert Chen"
        },
        "context": {
          "reference": "Encounter/Encounter-2334",
          "display": "Bayside Medical Group"
        },
        "effectiveDateTime": "2011-11-16T19:00:00-05:00",
        "performer": [
          {
            "reference": "Practitioner/Practitioner-2520",
            "display": "Kimberly Christy Ashley MD"
          }
        ],
        "valueQuantity": {
          "value": 0.0,
          "unit": "kg/m2"
        }
      },
      "request": {
        "method": "PUT",
        "url": "http://localhost:8080/cqf-ruler/baseDstu3/Observation/Observation-494734"
      }
    },
    {
      "fullUrl": "http://localhost:8080/cqf-ruler/baseDstu3/Observation/Observation-494735",
      "resource": {
        "resourceType": "Observation",
        "id": "Observation-494735",
        "status": "final",
        "code": {
          "coding": [
            {
              "system": "http://loinc.org",
              "code": "8310-5",
              "display": "Temperature"
            }
          ]
        },
        "subject": {
          "reference": "Patient/Patient-1124",
          "display": "Billy Robert Chen"
        },
        "context": {
          "reference": "Encounter/Encounter-2334",
          "display": "Bayside Medical Group"
        },
        "effectiveDateTime": "2011-11-16T19:00:00-05:00",
        "performer": [
          {
            "reference": "Practitioner/Practitioner-2520",
            "display": "Kimberly Christy Ashley MD"
          }
        ],
        "valueQuantity": {
          "value": 37.0,
          "unit": "C"
        }
      },
      "request": {
        "method": "PUT",
        "url": "http://localhost:8080/cqf-ruler/baseDstu3/Observation/Observation-494735"
      }
    },
    {
      "fullUrl": "http://localhost:8080/cqf-ruler/baseDstu3/Observation/Observation-494736",
      "resource": {
        "resourceType": "Observation",
        "id": "Observation-494736",
        "status": "final",
        "code": {
          "coding": [
            {
              "system": "http://loinc.org",
              "code": "8459-0",
              "display": "Systolic Blood Pressure"
            }
          ]
        },
        "subject": {
          "reference": "Patient/Patient-1124",
          "display": "Billy Robert Chen"
        },
        "context": {
          "reference": "Encounter/Encounter-2334",
          "display": "Bayside Medical Group"
        },
        "effectiveDateTime": "2011-11-16T19:00:00-05:00",
        "performer": [
          {
            "reference": "Practitioner/Practitioner-2520",
            "display": "Kimberly Christy Ashley MD"
          }
        ],
        "valueQuantity": {
          "value": 127.96022713212363,
          "unit": "mmHg"
        }
      },
      "request": {
        "method": "PUT",
        "url": "http://localhost:8080/cqf-ruler/baseDstu3/Observation/Observation-494736"
      }
    },
    {
      "fullUrl": "http://localhost:8080/cqf-ruler/baseDstu3/Observation/Observation-494737",
      "resource": {
        "resourceType": "Observation",
        "id": "Observation-494737",
        "status": "final",
        "code": {
          "coding": [
            {
              "system": "http://loinc.org",
              "code": "8453-3",
              "display": "Diastolic Blood Pressure"
            }
          ]
        },
        "subject": {
          "reference": "Patient/Patient-1124",
          "display": "Billy Robert Chen"
        },
        "context": {
          "reference": "Encounter/Encounter-2334",
          "display": "Bayside Medical Group"
        },
        "effectiveDateTime": "2011-11-16T19:00:00-05:00",
        "performer": [
          {
            "reference": "Practitioner/Practitioner-2520",
            "display": "Kimberly Christy Ashley MD"
          }
        ],
        "valueQuantity": {
          "value": 75.57646359913107,
          "unit": "mmHg"
        }
      },
      "request": {
        "method": "PUT",
        "url": "http://localhost:8080/cqf-ruler/baseDstu3/Observation/Observation-494737"
      }
    },
    {
      "fullUrl": "http://localhost:8080/cqf-ruler/baseDstu3/DiagnosticReport/DiagnosticReport-494731",
      "resource": {
        "resourceType": "DiagnosticReport",
        "id": "DiagnosticReport-494731",
        "status": "final",
        "code": {
          "coding": [
            {
              "system": "http://loinc.org",
              "code": "8716-3",
              "display": "Vital Signs Panel"
            }
          ]
        },
        "subject": {
          "reference": "Patient/Patient-1124",
          "display": "Billy Robert Chen"
        },
        "context": {
          "reference": "Encounter/Encounter-2334",
          "display": "Bayside Medical Group"
        },
        "effectivePeriod": {
          "start": "2011-11-16T19:00:00-05:00",
          "end": "2011-11-16T19:00:00-05:00"
        },
        "issued": "2011-11-16T19:00:00.000-05:00",
        "result": [
          {
            "reference": "Observation/Observation-494732",
            "display": "Height"
          },
          {
            "reference": "Observation/Observation-494733",
            "display": "Weight"
          },
          {
            "reference": "Observation/Observation-494734",
            "display": "BMI"
          },
          {
            "reference": "Observation/Observation-494735",
            "display": "Temperature"
          },
          {
            "reference": "Observation/Observation-494736",
            "display": "Systolic Blood Pressure"
          },
          {
            "reference": "Observation/Observation-494737",
            "display": "Diastolic Blood Pressure"
          }
        ]
      },
      "request": {
        "method": "PUT",
        "url": "http://localhost:8080/cqf-ruler/baseDstu3/DiagnosticReport/DiagnosticReport-494731"
      }
    }
  ]
}