{
  "resourceType": "Bundle",
  "id": "Billy Robert Chen-1124-Encounter-2210",
  "type": "transaction",
  "entry": [
    {
      "fullUrl": "http://localhost:8080/cqf-ruler/baseDstu3/Encounter/Encounter-2210",
      "resource": {
        "resourceType": "Encounter",
        "id": "Encounter-2210",
        "status": "finished",
        "class": {
          "system": "http://hl7.org/fhir/encounter-class",
          "code": "outpatient",
          "display": "Inpatient"
        },
        "subject": {
          "reference": "Patient/Patient-1124",
          "display": "Billy Robert Chen"
        },
        "participant": [
          {
            "period": {
              "start": "2011-02-16T01:00:00-05:00",
              "end": "2011-02-16T01:00:00-05:00"
            },
            "individual": {
              "reference": "Practitioner/Practitioner-2520",
              "display": "Kimberly Christy Ashley MD"
            }
          }
        ],
        "period": {
          "start": "2011-02-16T01:00:00-05:00",
          "end": "2011-02-16T01:00:00-05:00"
        },
        "location": [
          {
            "location": {
              "reference": "Location/Location-1105",
              "display": "Bayside Medical Group"
            }
          }
        ],
        "serviceProvider": {
          "reference": "Organization/Organization-1105",
          "display": "Bayside Medical Group"
        }
      },
      "request": {
        "method": "PUT",
        "url": "http://localhost:8080/cqf-ruler/baseDstu3/Encounter/Encounter-2210"
      }
    },
    {
      "fullUrl": "http://localhost:8080/cqf-ruler/baseDstu3/Observation/Observation-475642",
      "resource": {
        "resourceType": "Observation",
        "id": "Observation-475642",
        "status": "final",
        "code": {
          "coding": [
            {
              "system": "http://loinc.org",
              "code": "8302-2",
              "display": "Height"
            }
          ]
        },
        "subject": {
          "reference": "Patient/Patient-1124",
          "display": "Billy Robert Chen"
        },
        "context": {
          "reference": "Encounter/Encounter-2210",
          "display": "Bayside Medical Group"
        },
        "effectiveDateTime": "2011-02-16T01:00:00-05:00",
        "performer": [
          {
            "reference": "Practitioner/Practitioner-2520",
            "display": "Kimberly Christy Ashley MD"
          }
        ],
        "valueQuantity": {
          "value": 0.0,
          "unit": "cm"
        }
      },
      "request": {
        "method": "PUT",
        "url": "http://localhost:8080/cqf-ruler/baseDstu3/Observation/Observation-475642"
      }
    },
    {
      "fullUrl": "http://localhost:8080/cqf-ruler/baseDstu3/Observation/Observation-475643",
      "resource": {
        "resourceType": "Observation",
        "id": "Observation-475643",
        "status": "final",
        "code": {
          "coding": [
            {
              "system": "http://loinc.org",
              "code": "29463-7",
              "display": "Weight"
            }
          ]
        },
        "subject": {
          "reference": "Patient/Patient-1124",
          "display": "Billy Robert Chen"
        },
        "context": {
          "reference": "Encounter/Encounter-2210",
          "display": "Bayside Medical Group"
        },
        "effectiveDateTime": "2011-02-16T01:00:00-05:00",
        "performer": [
          {
            "reference": "Practitioner/Practitioner-2520",
            "display": "Kimberly Christy Ashley MD"
          }
        ],
        "valueQuantity": {
          "value": 0.0,
          "unit": "kg"
        }
      },
      "request": {
        "method": "PUT",
        "url": "http://localhost:8080/cqf-ruler/baseDstu3/Observation/Observation-475643"
      }
    },
    {
      "fullUrl": "http://localhost:8080/cqf-ruler/baseDstu3/Observation/Observation-475644",
      "resource": {
        "resourceType": "Observation",
        "id": "Observation-475644",
        "status": "final",
        "code": {
          "coding": [
            {
              "system": "http://loinc.org",
              "code": "39156-5",
              "display": "BMI"
            }
          ]
        },
        "subject": {
          "reference": "Patient/Patient-1124",
          "display": "Billy Robert Chen"
        },
        "context": {
          "reference": "Encounter/Encounter-2210",
          "display": "Bayside Medical Group"
        },
        "effectiveDateTime": "2011-02-16T01:00:00-05:00",
        "performer": [
          {
            "reference": "Practitioner/Practitioner-2520",
            "display": "Kimberly Christy Ashley MD"
          }
        ],
        "valueQuantity": {
          "value": 0.0,
          "unit": "kg/m2"
        }
      },
      "request": {
        "method": "PUT",
        "url": "http://localhost:8080/cqf-ruler/baseDstu3/Observation/Observation-475644"
      }
    },
    {
      "fullUrl": "http://localhost:8080/cqf-ruler/baseDstu3/Observation/Observation-475645",
      "resource": {
        "resourceType": "Observation",
        "id": "Observation-475645",
        "status": "final",
        "code": {
          "coding": [
            {
              "system": "http://loinc.org",
              "code": "8310-5",
              "display": "Temperature"
            }
          ]
        },
        "subject": {
          "reference": "Patient/Patient-1124",
          "display": "Billy Robert Chen"
        },
        "context": {
          "reference": "Encounter/Encounter-2210",
          "display": "Bayside Medical Group"
        },
        "effectiveDateTime": "2011-02-16T01:00:00-05:00",
        "performer": [
          {
            "reference": "Practitioner/Practitioner-2520",
            "display": "Kimberly Christy Ashley MD"
          }
        ],
        "valueQuantity": {
          "value": 37.0,
          "unit": "C"
        }
      },
      "request": {
        "method": "PUT",
        "url": "http://localhost:8080/cqf-ruler/baseDstu3/Observation/Observation-475645"
      }
    },
    {
      "fullUrl": "http://localhost:8080/cqf-ruler/baseDstu3/Observation/Observation-475646",
      "resource": {
        "resourceType": "Observation",
        "id": "Observation-475646",
        "status": "final",
        "code": {
          "coding": [
            {
              "system": "http://loinc.org",
              "code": "8459-0",
              "display": "Systolic Blood Pressure"
            }
          ]
        },
        "subject": {
          "reference": "Patient/Patient-1124",
          "display": "Billy Robert Chen"
        },
        "context": {
          "reference": "Encounter/Encounter-2210",
          "display": "Bayside Medical Group"
        },
        "effectiveDateTime": "2011-02-16T01:00:00-05:00",
        "performer": [
          {
            "reference": "Practitioner/Practitioner-2520",
            "display": "Kimberly Christy Ashley MD"
          }
        ],
        "valueQuantity": {
          "value": 128.00344940410307,
          "unit": "mmHg"
        }
      },
      "request": {
        "method": "PUT",
        "url": "http://localhost:8080/cqf-ruler/baseDstu3/Observation/Observation-475646"
      }
    },
    {
      "fullUrl": "http://localhost:8080/cqf-ruler/baseDstu3/Observation/Observation-475647",
      "resource": {
        "resourceType": "Observation",
        "id": "Observation-475647",
        "status": "final",
        "code": {
          "coding": [
            {
              "system": "http://loinc.org",
              "code": "8453-3",
              "display": "Diastolic Blood Pressure"
            }
          ]
        },
        "subject": {
          "reference": "Patient/Patient-1124",
          "display": "Billy Robert Chen"
        },
        "context": {
          "reference": "Encounter/Encounter-2210",
          "display": "Bayside Medical Group"
        },
        "effectiveDateTime": "2011-02-16T01:00:00-05:00",
        "performer": [
          {
            "reference": "Practitioner/Practitioner-2520",
            "display": "Kimberly Christy Ashley MD"
          }
        ],
        "valueQuantity": {
          "value": 75.7626760947325,
          "unit": "mmHg"
        }
      },
      "request": {
        "method": "PUT",
        "url": "http://localhost:8080/cqf-ruler/baseDstu3/Observation/Observation-475647"
      }
    },
    {
      "fullUrl": "http://localhost:8080/cqf-ruler/baseDstu3/DiagnosticReport/DiagnosticReport-475641",
      "resource": {
        "resourceType": "DiagnosticReport",
        "id": "DiagnosticReport-475641",
        "status": "final",
        "code": {
          "coding": [
            {
              "system": "http://loinc.org",
              "code": "8716-3",
              "display": "Vital Signs Panel"
            }
          ]
        },
        "subject": {
          "reference": "Patient/Patient-1124",
          "display": "Billy Robert Chen"
        },
        "context": {
          "reference": "Encounter/Encounter-2210",
          "display": "Bayside Medical Group"
        },
        "effectivePeriod": {
          "start": "2011-02-16T01:00:00-05:00",
          "end": "2011-02-16T01:00:00-05:00"
        },
        "issued": "2011-02-16T01:00:00.000-05:00",
        "result": [
          {
            "reference": "Observation/Observation-475642",
            "display": "Height"
          },
          {
            "reference": "Observation/Observation-475643",
            "display": "Weight"
          },
          {
            "reference": "Observation/Observation-475644",
            "display": "BMI"
          },
          {
            "reference": "Observation/Observation-475645",
            "display": "Temperature"
          },
          {
            "reference": "Observation/Observation-475646",
            "display": "Systolic Blood Pressure"
          },
          {
            "reference": "Observation/Observation-475647",
            "display": "Diastolic Blood Pressure"
          }
        ]
      },
      "request": {
        "method": "PUT",
        "url": "http://localhost:8080/cqf-ruler/baseDstu3/DiagnosticReport/DiagnosticReport-475641"
      }
    }
  ]
}