{
  "resourceType": "Bundle",
  "id": "Terrance-Clyde-Richard-6483-Encounter-2462",
  "type": "transaction",
  "entry": [
    {
      "fullUrl": "http://localhost:8080/cqf-ruler/baseDstu3Encounter/Encounter-2462",
      "resource": {
        "resourceType": "Encounter",
        "id": "Encounter-2462",
        "status": "finished",
        "class": {
          "system": "http://hl7.org/fhir/encounter-class",
          "code": "outpatient",
          "display": "Inpatient"
        },
        "subject": {
          "reference": "Patient/Patient-6483",
          "display": "Terrance Clyde Richard"
        },
        "participant": [
          {
            "period": {
              "start": "2013-12-13T00:00:00-05:00",
              "end": "2013-12-13T00:00:00-05:00"
            },
            "individual": {
              "reference": "Practitioner/Practitioner-2520",
              "display": "Kimberly Christy Ashley MD"
            }
          }
        ],
        "period": {
          "start": "2013-12-13T00:00:00-05:00",
          "end": "2013-12-13T00:00:00-05:00"
        },
        "location": [
          {
            "location": {
              "reference": "Location/Location-1105",
              "display": "Bayside Medical Group"
            }
          }
        ],
        "serviceProvider": {
          "reference": "Organization/Organization-1105",
          "display": "Bayside Medical Group"
        }
      },
      "request": {
        "method": "PUT",
        "url": "http://localhost:8080/cqf-ruler/baseDstu3Encounter/Encounter-2462"
      }
    },
    {
      "fullUrl": "http://localhost:8080/cqf-ruler/baseDstu3Immunization/Immunization-522415",
      "resource": {
        "resourceType": "Immunization",
        "id": "Immunization-522415",
        "status": "completed",
        "notGiven": false,
        "vaccineCode": {
          "coding": [
            {
              "system": "http://hl7.org/fhir/sid/cvx",
              "code": "140",
              "display": "Influenza, seasonal, injectable, preservative free"
            }
          ]
        },
        "patient": {
          "reference": "Patient/Patient-6483",
          "display": "Terrance Clyde Richard"
        },
        "date": "2013-12-13T00:00:00-05:00",
        "primarySource": true,
        "location": {
          "reference": "Location/Location-1105",
          "display": "Bayside Medical Group"
        },
        "practitioner": [
          {
            "actor": {
              "reference": "Practitioner/Practitioner-2520",
              "display": "Kimberly Christy Ashley MD"
            }
          }
        ]
      },
      "request": {
        "method": "PUT",
        "url": "http://localhost:8080/cqf-ruler/baseDstu3Immunization/Immunization-522415"
      }
    },
    {
      "fullUrl": "http://localhost:8080/cqf-ruler/baseDstu3Immunization/Immunization-522416",
      "resource": {
        "resourceType": "Immunization",
        "id": "Immunization-522416",
        "status": "completed",
        "notGiven": false,
        "vaccineCode": {
          "coding": [
            {
              "system": "http://hl7.org/fhir/sid/cvx",
              "code": "121",
              "display": "zoster"
            }
          ]
        },
        "patient": {
          "reference": "Patient/Patient-6483",
          "display": "Terrance Clyde Richard"
        },
        "date": "2013-12-13T00:00:00-05:00",
        "primarySource": true,
        "location": {
          "reference": "Location/Location-1105",
          "display": "Bayside Medical Group"
        },
        "practitioner": [
          {
            "actor": {
              "reference": "Practitioner/Practitioner-2520",
              "display": "Kimberly Christy Ashley MD"
            }
          }
        ]
      },
      "request": {
        "method": "PUT",
        "url": "http://localhost:8080/cqf-ruler/baseDstu3Immunization/Immunization-522416"
      }
    },
    {
      "fullUrl": "http://localhost:8080/cqf-ruler/baseDstu3Observation/Observation-548001",
      "resource": {
        "resourceType": "Observation",
        "id": "Observation-548001",
        "status": "final",
        "code": {
          "coding": [
            {
              "system": "http://loinc.org",
              "code": "8302-2",
              "display": "Height"
            }
          ]
        },
        "subject": {
          "reference": "Patient/Patient-6483",
          "display": "Terrance Clyde Richard"
        },
        "context": {
          "reference": "Encounter/Encounter-2462",
          "display": "Wellness Visit"
        },
        "effectiveDateTime": "2013-12-13T00:00:00-05:00",
        "performer": [
          {
            "reference": "Practitioner/Practitioner-2520",
            "display": "Kimberly Christy Ashley MD"
          }
        ],
        "valueQuantity": {
          "value": 167.7,
          "unit": "cm"
        }
      },
      "request": {
        "method": "PUT",
        "url": "http://localhost:8080/cqf-ruler/baseDstu3Observation/Observation-548001"
      }
    },
    {
      "fullUrl": "http://localhost:8080/cqf-ruler/baseDstu3Observation/Observation-548002",
      "resource": {
        "resourceType": "Observation",
        "id": "Observation-548002",
        "status": "final",
        "code": {
          "coding": [
            {
              "system": "http://loinc.org",
              "code": "29463-7",
              "display": "Weight"
            }
          ]
        },
        "subject": {
          "reference": "Patient/Patient-6483",
          "display": "Terrance Clyde Richard"
        },
        "context": {
          "reference": "Encounter/Encounter-2462",
          "display": "Wellness Visit"
        },
        "effectiveDateTime": "2013-12-13T00:00:00-05:00",
        "performer": [
          {
            "reference": "Practitioner/Practitioner-2520",
            "display": "Kimberly Christy Ashley MD"
          }
        ],
        "valueQuantity": {
          "value": 115.5023709915114,
          "unit": "kg"
        }
      },
      "request": {
        "method": "PUT",
        "url": "http://localhost:8080/cqf-ruler/baseDstu3Observation/Observation-548002"
      }
    },
    {
      "fullUrl": "http://localhost:8080/cqf-ruler/baseDstu3Observation/Observation-548003",
      "resource": {
        "resourceType": "Observation",
        "id": "Observation-548003",
        "status": "final",
        "code": {
          "coding": [
            {
              "system": "http://loinc.org",
              "code": "39156-5",
              "display": "BMI"
            }
          ]
        },
        "subject": {
          "reference": "Patient/Patient-6483",
          "display": "Terrance Clyde Richard"
        },
        "context": {
          "reference": "Encounter/Encounter-2462",
          "display": "Wellness Visit"
        },
        "effectiveDateTime": "2013-12-13T00:00:00-05:00",
        "performer": [
          {
            "reference": "Practitioner/Practitioner-2520",
            "display": "Kimberly Christy Ashley MD"
          }
        ],
        "valueQuantity": {
          "value": 41.07000674228066,
          "unit": "kg/m2"
        }
      },
      "request": {
        "method": "PUT",
        "url": "http://localhost:8080/cqf-ruler/baseDstu3Observation/Observation-548003"
      }
    },
    {
      "fullUrl": "http://localhost:8080/cqf-ruler/baseDstu3Observation/Observation-548004",
      "resource": {
        "resourceType": "Observation",
        "id": "Observation-548004",
        "status": "final",
        "code": {
          "coding": [
            {
              "system": "http://loinc.org",
              "code": "8310-5",
              "display": "Temperature"
            }
          ]
        },
        "subject": {
          "reference": "Patient/Patient-6483",
          "display": "Terrance Clyde Richard"
        },
        "context": {
          "reference": "Encounter/Encounter-2462",
          "display": "Wellness Visit"
        },
        "effectiveDateTime": "2013-12-13T00:00:00-05:00",
        "performer": [
          {
            "reference": "Practitioner/Practitioner-2520",
            "display": "Kimberly Christy Ashley MD"
          }
        ],
        "valueQuantity": {
          "value": 37.0,
          "unit": "C"
        }
      },
      "request": {
        "method": "PUT",
        "url": "http://localhost:8080/cqf-ruler/baseDstu3Observation/Observation-548004"
      }
    },
    {
      "fullUrl": "http://localhost:8080/cqf-ruler/baseDstu3Observation/Observation-548005",
      "resource": {
        "resourceType": "Observation",
        "id": "Observation-548005",
        "status": "final",
        "code": {
          "coding": [
            {
              "system": "http://loinc.org",
              "code": "8459-0",
              "display": "Systolic Blood Pressure"
            }
          ]
        },
        "subject": {
          "reference": "Patient/Patient-6483",
          "display": "Terrance Clyde Richard"
        },
        "context": {
          "reference": "Encounter/Encounter-2462",
          "display": "Wellness Visit"
        },
        "effectiveDateTime": "2013-12-13T00:00:00-05:00",
        "performer": [
          {
            "reference": "Practitioner/Practitioner-2520",
            "display": "Kimberly Christy Ashley MD"
          }
        ],
        "valueQuantity": {
          "value": 110.02197286501608,
          "unit": "mmHg"
        }
      },
      "request": {
        "method": "PUT",
        "url": "http://localhost:8080/cqf-ruler/baseDstu3Observation/Observation-548005"
      }
    },
    {
      "fullUrl": "http://localhost:8080/cqf-ruler/baseDstu3Observation/Observation-548006",
      "resource": {
        "resourceType": "Observation",
        "id": "Observation-548006",
        "status": "final",
        "code": {
          "coding": [
            {
              "system": "http://loinc.org",
              "code": "8453-3",
              "display": "Diastolic Blood Pressure"
            }
          ]
        },
        "subject": {
          "reference": "Patient/Patient-6483",
          "display": "Terrance Clyde Richard"
        },
        "context": {
          "reference": "Encounter/Encounter-2462",
          "display": "Wellness Visit"
        },
        "effectiveDateTime": "2013-12-13T00:00:00-05:00",
        "performer": [
          {
            "reference": "Practitioner/Practitioner-2520",
            "display": "Kimberly Christy Ashley MD"
          }
        ],
        "valueQuantity": {
          "value": 72.44683016031045,
          "unit": "mmHg"
        }
      },
      "request": {
        "method": "PUT",
        "url": "http://localhost:8080/cqf-ruler/baseDstu3Observation/Observation-548006"
      }
    },
    {
      "fullUrl": "http://localhost:8080/cqf-ruler/baseDstu3DiagnosticReport/DiagnosticReport-548000",
      "resource": {
        "resourceType": "DiagnosticReport",
        "id": "DiagnosticReport-548000",
        "status": "final",
        "code": {
          "coding": [
            {
              "system": "http://loinc.org",
              "code": "8716-3",
              "display": "Vital Signs Panel"
            }
          ]
        },
        "subject": {
          "reference": "Patient/Patient-6483",
          "display": "Terrance Clyde Richard"
        },
        "context": {
          "reference": "Encounter/Encounter-2462",
          "display": "Wellness Visit"
        },
        "effectivePeriod": {
          "start": "2013-12-13T00:00:00-05:00",
          "end": "2013-12-13T00:00:00-05:00"
        },
        "issued": "2013-12-13T00:00:00.000-05:00",
        "result": [
          {
            "reference": "Observation/Observation-548001",
            "display": "Height"
          },
          {
            "reference": "Observation/Observation-548002",
            "display": "Weight"
          },
          {
            "reference": "Observation/Observation-548003",
            "display": "BMI"
          },
          {
            "reference": "Observation/Observation-548004",
            "display": "Temperature"
          },
          {
            "reference": "Observation/Observation-548005",
            "display": "Systolic Blood Pressure"
          },
          {
            "reference": "Observation/Observation-548006",
            "display": "Diastolic Blood Pressure"
          }
        ]
      },
      "request": {
        "method": "PUT",
        "url": "http://localhost:8080/cqf-ruler/baseDstu3DiagnosticReport/DiagnosticReport-548000"
      }
    }
  ]
}