{
  "resourceType": "Bundle",
  "id": "Virgil-Dwayne-Hamilton-6552-Encounter-922",
  "type": "transaction",
  "entry": [
    {
      "fullUrl": "http://localhost:8080/cqf-ruler/baseDstu3/Encounter/Encounter-922",
      "resource": {
        "resourceType": "Encounter",
        "id": "Encounter-922",
        "meta": {
          "profile": [
            "http://hl7.org/fhir/us/hedis/StructureDefinition/hedis-encounter"
          ]
        },
        "status": "finished",
        "class": {
          "system": "http://hl7.org/fhir/encounter-class",
          "code": "outpatient",
          "display": "Outpatient"
        },
        "type": [
          {
            "coding": [
              {
                "system": "http://snomed.info/sct",
                "code": "170258001",
                "display": "Wellness Visit"
              }
            ]
          }
        ],
        "subject": {
          "reference": "Patient/Patient-6552",
          "display": "Virgil Dwayne Hamilton"
        },
        "participant": [
          {
            "period": {
              "start": "1997-02-07T00:00:00-05:00",
              "end": "1997-02-07T00:00:00-05:00"
            },
            "individual": {
              "reference": "Practitioner/Practitioner-2529",
              "display": "Stanley Floyd Nielsen MD"
            }
          }
        ],
        "period": {
          "start": "1997-02-07T00:00:00-05:00",
          "end": "1997-02-07T00:00:00-05:00"
        },
        "location": [
          {
            "location": {
              "reference": "Location/Location-1102",
              "display": "Pediatric and Adult Medicine"
            }
          }
        ],
        "serviceProvider": {
          "reference": "Organization/Organization-1102",
          "display": "Pediatric and Adult Medicine"
        }
      },
      "request": {
        "method": "PUT",
        "url": "http://localhost:8080/cqf-ruler/baseDstu3/Encounter/Encounter-922"
      }
    },
    {
      "fullUrl": "http://localhost:8080/cqf-ruler/baseDstu3/Immunization/Immunization-167559",
      "resource": {
        "resourceType": "Immunization",
        "id": "Immunization-167559",
        "status": "completed",
        "notGiven": false,
        "vaccineCode": {
          "coding": [
            {
              "system": "http://hl7.org/fhir/sid/cvx",
              "code": "83",
              "display": "Hep A, ped/adol, 2 dose"
            }
          ]
        },
        "patient": {
          "reference": "Patient/Patient-6552",
          "display": "Virgil Dwayne Hamilton"
        },
        "date": "1997-02-07T00:00:00-05:00",
        "primarySource": true,
        "location": {
          "reference": "Location/Location-1102",
          "display": "Pediatric and Adult Medicine"
        },
        "practitioner": [
          {
            "actor": {
              "reference": "Practitioner/Practitioner-2529",
              "display": "Stanley Floyd Nielsen MD"
            }
          }
        ]
      },
      "request": {
        "method": "PUT",
        "url": "http://localhost:8080/cqf-ruler/baseDstu3/Immunization/Immunization-167559"
      }
    },
    {
      "fullUrl": "http://localhost:8080/cqf-ruler/baseDstu3/Observation/Observation-179456",
      "resource": {
        "resourceType": "Observation",
        "id": "Observation-179456",
        "meta": {
          "profile": [
            "http://hl7.org/fhir/us/hedis/StructureDefinition/hedis-observation"
          ]
        },
        "status": "final",
        "code": {
          "coding": [
            {
              "system": "http://loinc.org",
              "code": "8480-6",
              "display": "Systolic blood pressure"
            }
          ]
        },
        "subject": {
          "reference": "Patient/Patient-6552",
          "display": "Virgil Dwayne Hamilton"
        },
        "context": {
          "reference": "Encounter/Encounter-922",
          "display": "Wellness Visit"
        },
        "effectiveDateTime": "1997-02-07T00:00:00-05:00",
        "performer": [
          {
            "reference": "Practitioner/Practitioner-2529",
            "display": "Stanley Floyd Nielsen MD"
          }
        ],
        "valueQuantity": {
          "value": 101.48825927217278,
          "unit": "mmHg"
        }
      },
      "request": {
        "method": "PUT",
        "url": "http://localhost:8080/cqf-ruler/baseDstu3/Observation/Observation-179456"
      }
    },
    {
      "fullUrl": "http://localhost:8080/cqf-ruler/baseDstu3/Observation/Observation-179457",
      "resource": {
        "resourceType": "Observation",
        "id": "Observation-179457",
        "meta": {
          "profile": [
            "http://hl7.org/fhir/us/hedis/StructureDefinition/hedis-observation"
          ]
        },
        "status": "final",
        "code": {
          "coding": [
            {
              "system": "http://loinc.org",
              "code": "8462-4",
              "display": "Diastolic blood pressure"
            }
          ]
        },
        "subject": {
          "reference": "Patient/Patient-6552",
          "display": "Virgil Dwayne Hamilton"
        },
        "context": {
          "reference": "Encounter/Encounter-922",
          "display": "Wellness Visit"
        },
        "effectiveDateTime": "1997-02-07T00:00:00-05:00",
        "performer": [
          {
            "reference": "Practitioner/Practitioner-2529",
            "display": "Stanley Floyd Nielsen MD"
          }
        ],
        "valueQuantity": {
          "value": 78.9167636259505,
          "unit": "mmHg"
        }
      },
      "request": {
        "method": "PUT",
        "url": "http://localhost:8080/cqf-ruler/baseDstu3/Observation/Observation-179457"
      }
    },
    {
      "fullUrl": "http://localhost:8080/cqf-ruler/baseDstu3/Observation/Observation-179458",
      "resource": {
        "resourceType": "Observation",
        "id": "Observation-179458",
        "meta": {
          "profile": [
            "http://hl7.org/fhir/us/hedis/StructureDefinition/hedis-observation"
          ]
        },
        "status": "final",
        "code": {
          "coding": [
            {
              "system": "http://loinc.org",
              "code": "8302-2",
              "display": "Body Height"
            }
          ]
        },
        "subject": {
          "reference": "Patient/Patient-6552",
          "display": "Virgil Dwayne Hamilton"
        },
        "context": {
          "reference": "Encounter/Encounter-922",
          "display": "Wellness Visit"
        },
        "effectiveDateTime": "1997-02-07T00:00:00-05:00",
        "performer": [
          {
            "reference": "Practitioner/Practitioner-2529",
            "display": "Stanley Floyd Nielsen MD"
          }
        ],
        "valueQuantity": {
          "value": 82.4,
          "unit": "cm"
        }
      },
      "request": {
        "method": "PUT",
        "url": "http://localhost:8080/cqf-ruler/baseDstu3/Observation/Observation-179458"
      }
    },
    {
      "fullUrl": "http://localhost:8080/cqf-ruler/baseDstu3/Observation/Observation-179459",
      "resource": {
        "resourceType": "Observation",
        "id": "Observation-179459",
        "meta": {
          "profile": [
            "http://hl7.org/fhir/us/hedis/StructureDefinition/hedis-observation"
          ]
        },
        "status": "final",
        "code": {
          "coding": [
            {
              "system": "http://loinc.org",
              "code": "29463-7",
              "display": "Body Weight"
            }
          ]
        },
        "subject": {
          "reference": "Patient/Patient-6552",
          "display": "Virgil Dwayne Hamilton"
        },
        "context": {
          "reference": "Encounter/Encounter-922",
          "display": "Wellness Visit"
        },
        "effectiveDateTime": "1997-02-07T00:00:00-05:00",
        "performer": [
          {
            "reference": "Practitioner/Practitioner-2529",
            "display": "Stanley Floyd Nielsen MD"
          }
        ],
        "valueQuantity": {
          "value": 13.7,
          "unit": "kg"
        }
      },
      "request": {
        "method": "PUT",
        "url": "http://localhost:8080/cqf-ruler/baseDstu3/Observation/Observation-179459"
      }
    },
    {
      "fullUrl": "http://localhost:8080/cqf-ruler/baseDstu3/Observation/Observation-179460",
      "resource": {
        "resourceType": "Observation",
        "id": "Observation-179460",
        "meta": {
          "profile": [
            "http://hl7.org/fhir/us/hedis/StructureDefinition/hedis-observation"
          ]
        },
        "status": "final",
        "code": {
          "coding": [
            {
              "system": "http://loinc.org",
              "code": "39156-5",
              "display": "Body Mass Index"
            }
          ]
        },
        "subject": {
          "reference": "Patient/Patient-6552",
          "display": "Virgil Dwayne Hamilton"
        },
        "context": {
          "reference": "Encounter/Encounter-922",
          "display": "Wellness Visit"
        },
        "effectiveDateTime": "1997-02-07T00:00:00-05:00",
        "performer": [
          {
            "reference": "Practitioner/Practitioner-2529",
            "display": "Stanley Floyd Nielsen MD"
          }
        ],
        "valueQuantity": {
          "value": 20.177443679894424,
          "unit": "kg/m2"
        }
      },
      "request": {
        "method": "PUT",
        "url": "http://localhost:8080/cqf-ruler/baseDstu3/Observation/Observation-179460"
      }
    },
    {
      "fullUrl": "http://localhost:8080/cqf-ruler/baseDstu3/Observation/Observation-179463",
      "resource": {
        "resourceType": "Observation",
        "id": "Observation-179463",
        "meta": {
          "profile": [
            "http://hl7.org/fhir/us/hedis/StructureDefinition/hedis-observation"
          ]
        },
        "status": "final",
        "code": {
          "coding": [
            {
              "system": "http://loinc.org",
              "code": "55284-4",
              "display": "Blood Pressure"
            }
          ]
        },
        "subject": {
          "reference": "Patient/Patient-6552",
          "display": "Virgil Dwayne Hamilton"
        },
        "context": {
          "reference": "Encounter/Encounter-922",
          "display": "Wellness Visit"
        },
        "effectiveDateTime": "1997-02-07T00:00:00-05:00",
        "valueQuantity": {
          "value": 78.9167636259505,
          "unit": "mmHg"
        },
        "component": [
          {
            "code": {
              "coding": [
                {
                  "system": "http://loinc.org",
                  "code": "8480-6",
                  "display": "Systolic Blood Pressure"
                }
              ]
            }
          },
          {
            "code": {
              "coding": [
                {
                  "system": "http://loinc.org",
                  "code": "8462-4",
                  "display": "Diastolic Blood Pressure"
                }
              ]
            }
          }
        ]
      },
      "request": {
        "method": "PUT",
        "url": "http://localhost:8080/cqf-ruler/baseDstu3/Observation/Observation-179463"
      }
    },
    {
      "fullUrl": "http://localhost:8080/cqf-ruler/baseDstu3/Observation/Observation-179465",
      "resource": {
        "resourceType": "Observation",
        "id": "Observation-179465",
        "status": "final",
        "code": {
          "coding": [
            {
              "system": "http://loinc.org",
              "code": "8302-2",
              "display": "Height"
            }
          ]
        },
        "subject": {
          "reference": "Patient/Patient-6552",
          "display": "Virgil Dwayne Hamilton"
        },
        "context": {
          "reference": "Encounter/Encounter-922",
          "display": "Wellness Visit"
        },
        "effectiveDateTime": "1997-02-07T00:00:00-05:00",
        "performer": [
          {
            "reference": "Practitioner/Practitioner-2529",
            "display": "Stanley Floyd Nielsen MD"
          }
        ],
        "valueQuantity": {
          "value": 82.4,
          "unit": "cm"
        }
      },
      "request": {
        "method": "PUT",
        "url": "http://localhost:8080/cqf-ruler/baseDstu3/Observation/Observation-179465"
      }
    },
    {
      "fullUrl": "http://localhost:8080/cqf-ruler/baseDstu3/Observation/Observation-179466",
      "resource": {
        "resourceType": "Observation",
        "id": "Observation-179466",
        "status": "final",
        "code": {
          "coding": [
            {
              "system": "http://loinc.org",
              "code": "29463-7",
              "display": "Weight"
            }
          ]
        },
        "subject": {
          "reference": "Patient/Patient-6552",
          "display": "Virgil Dwayne Hamilton"
        },
        "context": {
          "reference": "Encounter/Encounter-922",
          "display": "Wellness Visit"
        },
        "effectiveDateTime": "1997-02-07T00:00:00-05:00",
        "performer": [
          {
            "reference": "Practitioner/Practitioner-2529",
            "display": "Stanley Floyd Nielsen MD"
          }
        ],
        "valueQuantity": {
          "value": 13.7,
          "unit": "kg"
        }
      },
      "request": {
        "method": "PUT",
        "url": "http://localhost:8080/cqf-ruler/baseDstu3/Observation/Observation-179466"
      }
    },
    {
      "fullUrl": "http://localhost:8080/cqf-ruler/baseDstu3/Observation/Observation-179467",
      "resource": {
        "resourceType": "Observation",
        "id": "Observation-179467",
        "status": "final",
        "code": {
          "coding": [
            {
              "system": "http://loinc.org",
              "code": "39156-5",
              "display": "BMI"
            }
          ]
        },
        "subject": {
          "reference": "Patient/Patient-6552",
          "display": "Virgil Dwayne Hamilton"
        },
        "context": {
          "reference": "Encounter/Encounter-922",
          "display": "Wellness Visit"
        },
        "effectiveDateTime": "1997-02-07T00:00:00-05:00",
        "performer": [
          {
            "reference": "Practitioner/Practitioner-2529",
            "display": "Stanley Floyd Nielsen MD"
          }
        ],
        "valueQuantity": {
          "value": 20.177443679894424,
          "unit": "kg/m2"
        }
      },
      "request": {
        "method": "PUT",
        "url": "http://localhost:8080/cqf-ruler/baseDstu3/Observation/Observation-179467"
      }
    },
    {
      "fullUrl": "http://localhost:8080/cqf-ruler/baseDstu3/Observation/Observation-179468",
      "resource": {
        "resourceType": "Observation",
        "id": "Observation-179468",
        "status": "final",
        "code": {
          "coding": [
            {
              "system": "http://loinc.org",
              "code": "8310-5",
              "display": "Temperature"
            }
          ]
        },
        "subject": {
          "reference": "Patient/Patient-6552",
          "display": "Virgil Dwayne Hamilton"
        },
        "context": {
          "reference": "Encounter/Encounter-922",
          "display": "Wellness Visit"
        },
        "effectiveDateTime": "1997-02-07T00:00:00-05:00",
        "performer": [
          {
            "reference": "Practitioner/Practitioner-2529",
            "display": "Stanley Floyd Nielsen MD"
          }
        ],
        "valueQuantity": {
          "value": 37.0,
          "unit": "C"
        }
      },
      "request": {
        "method": "PUT",
        "url": "http://localhost:8080/cqf-ruler/baseDstu3/Observation/Observation-179468"
      }
    },
    {
      "fullUrl": "http://localhost:8080/cqf-ruler/baseDstu3/Observation/Observation-179469",
      "resource": {
        "resourceType": "Observation",
        "id": "Observation-179469",
        "status": "final",
        "code": {
          "coding": [
            {
              "system": "http://loinc.org",
              "code": "8459-0",
              "display": "Systolic Blood Pressure"
            }
          ]
        },
        "subject": {
          "reference": "Patient/Patient-6552",
          "display": "Virgil Dwayne Hamilton"
        },
        "context": {
          "reference": "Encounter/Encounter-922",
          "display": "Wellness Visit"
        },
        "effectiveDateTime": "1997-02-07T00:00:00-05:00",
        "performer": [
          {
            "reference": "Practitioner/Practitioner-2529",
            "display": "Stanley Floyd Nielsen MD"
          }
        ],
        "valueQuantity": {
          "value": 101.48825927217278,
          "unit": "mmHg"
        }
      },
      "request": {
        "method": "PUT",
        "url": "http://localhost:8080/cqf-ruler/baseDstu3/Observation/Observation-179469"
      }
    },
    {
      "fullUrl": "http://localhost:8080/cqf-ruler/baseDstu3/Observation/Observation-179470",
      "resource": {
        "resourceType": "Observation",
        "id": "Observation-179470",
        "status": "final",
        "code": {
          "coding": [
            {
              "system": "http://loinc.org",
              "code": "8453-3",
              "display": "Diastolic Blood Pressure"
            }
          ]
        },
        "subject": {
          "reference": "Patient/Patient-6552",
          "display": "Virgil Dwayne Hamilton"
        },
        "context": {
          "reference": "Encounter/Encounter-922",
          "display": "Wellness Visit"
        },
        "effectiveDateTime": "1997-02-07T00:00:00-05:00",
        "performer": [
          {
            "reference": "Practitioner/Practitioner-2529",
            "display": "Stanley Floyd Nielsen MD"
          }
        ],
        "valueQuantity": {
          "value": 78.9167636259505,
          "unit": "mmHg"
        }
      },
      "request": {
        "method": "PUT",
        "url": "http://localhost:8080/cqf-ruler/baseDstu3/Observation/Observation-179470"
      }
    },
    {
      "fullUrl": "http://localhost:8080/cqf-ruler/baseDstu3/DiagnosticReport/DiagnosticReport-179464",
      "resource": {
        "resourceType": "DiagnosticReport",
        "id": "DiagnosticReport-179464",
        "meta": {
          "profile": [
            "http://hl7.org/fhir/us/hedis/StructureDefinition/hedis-diagnosticreport"
          ]
        },
        "status": "final",
        "category": {
          "coding": [
            {
              "system": "http://hl7.org/fhir/ValueSet/diagnostic-service-sections",
              "code": "LAB",
              "display": "Laboratory"
            }
          ]
        },
        "code": {
          "coding": [
            {
              "system": "http://loinc.org",
              "code": "8716-3",
              "display": "Vital Signs Panel"
            }
          ]
        },
        "subject": {
          "reference": "Patient/Patient-6552",
          "display": "Virgil Dwayne Hamilton"
        },
        "context": {
          "reference": "Encounter/Encounter-922",
          "display": "Wellness Visit"
        },
        "effectivePeriod": {
          "start": "1997-02-07T00:00:00-05:00",
          "end": "1997-02-07T00:00:00-05:00"
        },
        "issued": "1997-02-07T00:00:00.000-05:00",
        "result": [
          {
            "reference": "Observation/Observation-179465",
            "display": "Height"
          },
          {
            "reference": "Observation/Observation-179466",
            "display": "Weight"
          },
          {
            "reference": "Observation/Observation-179467",
            "display": "BMI"
          },
          {
            "reference": "Observation/Observation-179468",
            "display": "Temperature"
          },
          {
            "reference": "Observation/Observation-179469",
            "display": "Systolic Blood Pressure"
          },
          {
            "reference": "Observation/Observation-179470",
            "display": "Diastolic Blood Pressure"
          }
        ]
      },
      "request": {
        "method": "PUT",
        "url": "http://localhost:8080/cqf-ruler/baseDstu3/DiagnosticReport/DiagnosticReport-179464"
      }
    }
  ]
}