{
  "resourceType": "Bundle",
  "id": "Virgil-Dwayne-Hamilton-6552-Encounter-1467",
  "type": "transaction",
  "entry": [
    {
      "fullUrl": "http://localhost:8080/cqf-ruler/baseDstu3/Encounter/Encounter-1467",
      "resource": {
        "resourceType": "Encounter",
        "id": "Encounter-1467",
        "status": "finished",
        "class": {
          "system": "http://hl7.org/fhir/encounter-class",
          "code": "outpatient",
          "display": "Inpatient"
        },
        "subject": {
          "reference": "Patient/Patient-6552",
          "display": "Virgil Dwayne Hamilton"
        },
        "participant": [
          {
            "period": {
              "start": "2004-04-09T00:00:00-04:00",
              "end": "2004-04-09T00:00:00-04:00"
            },
            "individual": {
              "reference": "Practitioner/Practitioner-2529",
              "display": "Stanley Floyd Nielsen MD"
            }
          }
        ],
        "period": {
          "start": "2004-04-09T00:00:00-04:00",
          "end": "2004-04-09T00:00:00-04:00"
        },
        "location": [
          {
            "location": {
              "reference": "Location/Location-1102",
              "display": "Pediatric and Adult Medicine"
            }
          }
        ],
        "serviceProvider": {
          "reference": "Organization/Organization-1102",
          "display": "Pediatric and Adult Medicine"
        }
      },
      "request": {
        "method": "PUT",
        "url": "http://localhost:8080/cqf-ruler/baseDstu3/Encounter/Encounter-1467"
      }
    },
    {
      "fullUrl": "http://localhost:8080/cqf-ruler/baseDstu3/Immunization/Immunization-311754",
      "resource": {
        "resourceType": "Immunization",
        "id": "Immunization-311754",
        "status": "completed",
        "notGiven": false,
        "vaccineCode": {
          "coding": [
            {
              "system": "http://hl7.org/fhir/sid/cvx",
              "code": "140",
              "display": "Influenza, seasonal, injectable, preservative free"
            }
          ]
        },
        "patient": {
          "reference": "Patient/Patient-6552",
          "display": "Virgil Dwayne Hamilton"
        },
        "date": "2004-04-09T00:00:00-04:00",
        "primarySource": true,
        "location": {
          "reference": "Location/Location-1102",
          "display": "Pediatric and Adult Medicine"
        },
        "practitioner": [
          {
            "actor": {
              "reference": "Practitioner/Practitioner-2529",
              "display": "Stanley Floyd Nielsen MD"
            }
          }
        ]
      },
      "request": {
        "method": "PUT",
        "url": "http://localhost:8080/cqf-ruler/baseDstu3/Immunization/Immunization-311754"
      }
    },
    {
      "fullUrl": "http://localhost:8080/cqf-ruler/baseDstu3/Observation/Observation-335664",
      "resource": {
        "resourceType": "Observation",
        "id": "Observation-335664",
        "status": "final",
        "code": {
          "coding": [
            {
              "system": "http://loinc.org",
              "code": "8480-6",
              "display": "Systolic blood pressure"
            }
          ]
        },
        "subject": {
          "reference": "Patient/Patient-6552",
          "display": "Virgil Dwayne Hamilton"
        },
        "context": {
          "reference": "Encounter/Encounter-1467",
          "display": "Wellness Visit"
        },
        "effectivePeriod": {
          "start": "2004-04-09T00:00:00-04:00",
          "end": "2004-04-09T00:00:00-04:00"
        },
        "performer": [
          {
            "reference": "Practitioner/Practitioner-2529",
            "display": "Stanley Floyd Nielsen MD"
          }
        ],
        "valueQuantity": {
          "value": 123.53532136659068,
          "unit": "mmHg"
        }
      },
      "request": {
        "method": "PUT",
        "url": "http://localhost:8080/cqf-ruler/baseDstu3/Observation/Observation-335664"
      }
    },
    {
      "fullUrl": "http://localhost:8080/cqf-ruler/baseDstu3/Observation/Observation-335665",
      "resource": {
        "resourceType": "Observation",
        "id": "Observation-335665",
        "status": "final",
        "code": {
          "coding": [
            {
              "system": "http://loinc.org",
              "code": "8462-4",
              "display": "Diastolic blood pressure"
            }
          ]
        },
        "subject": {
          "reference": "Patient/Patient-6552",
          "display": "Virgil Dwayne Hamilton"
        },
        "context": {
          "reference": "Encounter/Encounter-1467",
          "display": "Wellness Visit"
        },
        "effectivePeriod": {
          "start": "2004-04-09T00:00:00-04:00",
          "end": "2004-04-09T00:00:00-04:00"
        },
        "performer": [
          {
            "reference": "Practitioner/Practitioner-2529",
            "display": "Stanley Floyd Nielsen MD"
          }
        ],
        "valueQuantity": {
          "value": 70.01216978768011,
          "unit": "mmHg"
        }
      },
      "request": {
        "method": "PUT",
        "url": "http://localhost:8080/cqf-ruler/baseDstu3/Observation/Observation-335665"
      }
    },
    {
      "fullUrl": "http://localhost:8080/cqf-ruler/baseDstu3/Observation/Observation-335666",
      "resource": {
        "resourceType": "Observation",
        "id": "Observation-335666",
        "status": "final",
        "code": {
          "coding": [
            {
              "system": "http://loinc.org",
              "code": "8302-2",
              "display": "Body Height"
            }
          ]
        },
        "subject": {
          "reference": "Patient/Patient-6552",
          "display": "Virgil Dwayne Hamilton"
        },
        "context": {
          "reference": "Encounter/Encounter-1467",
          "display": "Wellness Visit"
        },
        "effectivePeriod": {
          "start": "2004-04-09T00:00:00-04:00",
          "end": "2004-04-09T00:00:00-04:00"
        },
        "performer": [
          {
            "reference": "Practitioner/Practitioner-2529",
            "display": "Stanley Floyd Nielsen MD"
          }
        ],
        "valueQuantity": {
          "value": 126.7,
          "unit": "cm"
        }
      },
      "request": {
        "method": "PUT",
        "url": "http://localhost:8080/cqf-ruler/baseDstu3/Observation/Observation-335666"
      }
    },
    {
      "fullUrl": "http://localhost:8080/cqf-ruler/baseDstu3/Observation/Observation-335667",
      "resource": {
        "resourceType": "Observation",
        "id": "Observation-335667",
        "status": "final",
        "code": {
          "coding": [
            {
              "system": "http://loinc.org",
              "code": "29463-7",
              "display": "Body Weight"
            }
          ]
        },
        "subject": {
          "reference": "Patient/Patient-6552",
          "display": "Virgil Dwayne Hamilton"
        },
        "context": {
          "reference": "Encounter/Encounter-1467",
          "display": "Wellness Visit"
        },
        "effectivePeriod": {
          "start": "2004-04-09T00:00:00-04:00",
          "end": "2004-04-09T00:00:00-04:00"
        },
        "performer": [
          {
            "reference": "Practitioner/Practitioner-2529",
            "display": "Stanley Floyd Nielsen MD"
          }
        ],
        "valueQuantity": {
          "value": 33.0,
          "unit": "kg"
        }
      },
      "request": {
        "method": "PUT",
        "url": "http://localhost:8080/cqf-ruler/baseDstu3/Observation/Observation-335667"
      }
    },
    {
      "fullUrl": "http://localhost:8080/cqf-ruler/baseDstu3/Observation/Observation-335668",
      "resource": {
        "resourceType": "Observation",
        "id": "Observation-335668",
        "status": "final",
        "code": {
          "coding": [
            {
              "system": "http://loinc.org",
              "code": "39156-5",
              "display": "Body Mass Index"
            }
          ]
        },
        "subject": {
          "reference": "Patient/Patient-6552",
          "display": "Virgil Dwayne Hamilton"
        },
        "context": {
          "reference": "Encounter/Encounter-1467",
          "display": "Wellness Visit"
        },
        "effectivePeriod": {
          "start": "2004-04-09T00:00:00-04:00",
          "end": "2004-04-09T00:00:00-04:00"
        },
        "performer": [
          {
            "reference": "Practitioner/Practitioner-2529",
            "display": "Stanley Floyd Nielsen MD"
          }
        ],
        "valueQuantity": {
          "value": 20.557046114437956,
          "unit": "kg/m2"
        }
      },
      "request": {
        "method": "PUT",
        "url": "http://localhost:8080/cqf-ruler/baseDstu3/Observation/Observation-335668"
      }
    },
    {
      "fullUrl": "http://localhost:8080/cqf-ruler/baseDstu3/Observation/Observation-335671",
      "resource": {
        "resourceType": "Observation",
        "id": "Observation-335671",
        "status": "final",
        "category": [
          {
            "coding": [
              {
                "system": "http://hl7.org/fhir/observation-category",
                "code": "vital-signs",
                "display": "vital-signs"
              }
            ]
          }
        ],
        "code": {
          "coding": [
            {
              "system": "http://loinc.org",
              "code": "55284-4",
              "display": "Blood Pressure"
            }
          ]
        },
        "subject": {
          "reference": "Patient/Patient-6552",
          "display": "Virgil Dwayne Hamilton"
        },
        "context": {
          "reference": "Encounter/Encounter-1467",
          "display": "Wellness Visit"
        },
        "effectivePeriod": {
          "start": "2004-04-09T00:00:00-04:00",
          "end": "2004-04-09T00:00:00-04:00"
        },
        "valueQuantity": {
          "value": 70.01216978768011,
          "unit": "mmHg"
        },
        "component": [
          {
            "code": {
              "coding": [
                {
                  "system": "http://loinc.org",
                  "code": "8480-6",
                  "display": "Systolic Blood Pressure"
                }
              ]
            }
          },
          {
            "code": {
              "coding": [
                {
                  "system": "http://loinc.org",
                  "code": "8462-4",
                  "display": "Diastolic Blood Pressure"
                }
              ]
            }
          }
        ]
      },
      "request": {
        "method": "PUT",
        "url": "http://localhost:8080/cqf-ruler/baseDstu3/Observation/Observation-335671"
      }
    },
    {
      "fullUrl": "http://localhost:8080/cqf-ruler/baseDstu3/Observation/Observation-335673",
      "resource": {
        "resourceType": "Observation",
        "id": "Observation-335673",
        "status": "final",
        "code": {
          "coding": [
            {
              "system": "http://loinc.org",
              "code": "8302-2",
              "display": "Height"
            }
          ]
        },
        "subject": {
          "reference": "Patient/Patient-6552",
          "display": "Virgil Dwayne Hamilton"
        },
        "context": {
          "reference": "Encounter/Encounter-1467",
          "display": "Wellness Visit"
        },
        "effectiveDateTime": "2004-04-09T00:00:00-04:00",
        "performer": [
          {
            "reference": "Practitioner/Practitioner-2529",
            "display": "Stanley Floyd Nielsen MD"
          }
        ],
        "valueQuantity": {
          "value": 126.7,
          "unit": "cm"
        }
      },
      "request": {
        "method": "PUT",
        "url": "http://localhost:8080/cqf-ruler/baseDstu3/Observation/Observation-335673"
      }
    },
    {
      "fullUrl": "http://localhost:8080/cqf-ruler/baseDstu3/Observation/Observation-335674",
      "resource": {
        "resourceType": "Observation",
        "id": "Observation-335674",
        "status": "final",
        "code": {
          "coding": [
            {
              "system": "http://loinc.org",
              "code": "29463-7",
              "display": "Weight"
            }
          ]
        },
        "subject": {
          "reference": "Patient/Patient-6552",
          "display": "Virgil Dwayne Hamilton"
        },
        "context": {
          "reference": "Encounter/Encounter-1467",
          "display": "Wellness Visit"
        },
        "effectiveDateTime": "2004-04-09T00:00:00-04:00",
        "performer": [
          {
            "reference": "Practitioner/Practitioner-2529",
            "display": "Stanley Floyd Nielsen MD"
          }
        ],
        "valueQuantity": {
          "value": 33.0,
          "unit": "kg"
        }
      },
      "request": {
        "method": "PUT",
        "url": "http://localhost:8080/cqf-ruler/baseDstu3/Observation/Observation-335674"
      }
    },
    {
      "fullUrl": "http://localhost:8080/cqf-ruler/baseDstu3/Observation/Observation-335675",
      "resource": {
        "resourceType": "Observation",
        "id": "Observation-335675",
        "status": "final",
        "code": {
          "coding": [
            {
              "system": "http://loinc.org",
              "code": "39156-5",
              "display": "BMI"
            }
          ]
        },
        "subject": {
          "reference": "Patient/Patient-6552",
          "display": "Virgil Dwayne Hamilton"
        },
        "context": {
          "reference": "Encounter/Encounter-1467",
          "display": "Wellness Visit"
        },
        "effectiveDateTime": "2004-04-09T00:00:00-04:00",
        "performer": [
          {
            "reference": "Practitioner/Practitioner-2529",
            "display": "Stanley Floyd Nielsen MD"
          }
        ],
        "valueQuantity": {
          "value": 20.557046114437956,
          "unit": "kg/m2"
        }
      },
      "request": {
        "method": "PUT",
        "url": "http://localhost:8080/cqf-ruler/baseDstu3/Observation/Observation-335675"
      }
    },
    {
      "fullUrl": "http://localhost:8080/cqf-ruler/baseDstu3/Observation/Observation-335676",
      "resource": {
        "resourceType": "Observation",
        "id": "Observation-335676",
        "status": "final",
        "code": {
          "coding": [
            {
              "system": "http://loinc.org",
              "code": "8310-5",
              "display": "Temperature"
            }
          ]
        },
        "subject": {
          "reference": "Patient/Patient-6552",
          "display": "Virgil Dwayne Hamilton"
        },
        "context": {
          "reference": "Encounter/Encounter-1467",
          "display": "Wellness Visit"
        },
        "effectiveDateTime": "2004-04-09T00:00:00-04:00",
        "performer": [
          {
            "reference": "Practitioner/Practitioner-2529",
            "display": "Stanley Floyd Nielsen MD"
          }
        ],
        "valueQuantity": {
          "value": 37.0,
          "unit": "C"
        }
      },
      "request": {
        "method": "PUT",
        "url": "http://localhost:8080/cqf-ruler/baseDstu3/Observation/Observation-335676"
      }
    },
    {
      "fullUrl": "http://localhost:8080/cqf-ruler/baseDstu3/Observation/Observation-335677",
      "resource": {
        "resourceType": "Observation",
        "id": "Observation-335677",
        "status": "final",
        "code": {
          "coding": [
            {
              "system": "http://loinc.org",
              "code": "8459-0",
              "display": "Systolic Blood Pressure"
            }
          ]
        },
        "subject": {
          "reference": "Patient/Patient-6552",
          "display": "Virgil Dwayne Hamilton"
        },
        "context": {
          "reference": "Encounter/Encounter-1467",
          "display": "Wellness Visit"
        },
        "effectiveDateTime": "2004-04-09T00:00:00-04:00",
        "performer": [
          {
            "reference": "Practitioner/Practitioner-2529",
            "display": "Stanley Floyd Nielsen MD"
          }
        ],
        "valueQuantity": {
          "value": 123.53532136659068,
          "unit": "mmHg"
        }
      },
      "request": {
        "method": "PUT",
        "url": "http://localhost:8080/cqf-ruler/baseDstu3/Observation/Observation-335677"
      }
    },
    {
      "fullUrl": "http://localhost:8080/cqf-ruler/baseDstu3/Observation/Observation-335678",
      "resource": {
        "resourceType": "Observation",
        "id": "Observation-335678",
        "status": "final",
        "code": {
          "coding": [
            {
              "system": "http://loinc.org",
              "code": "8453-3",
              "display": "Diastolic Blood Pressure"
            }
          ]
        },
        "subject": {
          "reference": "Patient/Patient-6552",
          "display": "Virgil Dwayne Hamilton"
        },
        "context": {
          "reference": "Encounter/Encounter-1467",
          "display": "Wellness Visit"
        },
        "effectiveDateTime": "2004-04-09T00:00:00-04:00",
        "performer": [
          {
            "reference": "Practitioner/Practitioner-2529",
            "display": "Stanley Floyd Nielsen MD"
          }
        ],
        "valueQuantity": {
          "value": 70.01216978768011,
          "unit": "mmHg"
        }
      },
      "request": {
        "method": "PUT",
        "url": "http://localhost:8080/cqf-ruler/baseDstu3/Observation/Observation-335678"
      }
    },
    {
      "fullUrl": "http://localhost:8080/cqf-ruler/baseDstu3/DiagnosticReport/DiagnosticReport-335672",
      "resource": {
        "resourceType": "DiagnosticReport",
        "id": "DiagnosticReport-335672",
        "status": "final",
        "code": {
          "coding": [
            {
              "system": "http://loinc.org",
              "code": "8716-3",
              "display": "Vital Signs Panel"
            }
          ]
        },
        "subject": {
          "reference": "Patient/Patient-6552",
          "display": "Virgil Dwayne Hamilton"
        },
        "context": {
          "reference": "Encounter/Encounter-1467",
          "display": "Wellness Visit"
        },
        "effectivePeriod": {
          "start": "2004-04-09T00:00:00-04:00",
          "end": "2004-04-09T00:00:00-04:00"
        },
        "issued": "2004-04-09T00:00:00.000-04:00",
        "result": [
          {
            "reference": "Observation/Observation-335673",
            "display": "Height"
          },
          {
            "reference": "Observation/Observation-335674",
            "display": "Weight"
          },
          {
            "reference": "Observation/Observation-335675",
            "display": "BMI"
          },
          {
            "reference": "Observation/Observation-335676",
            "display": "Temperature"
          },
          {
            "reference": "Observation/Observation-335677",
            "display": "Systolic Blood Pressure"
          },
          {
            "reference": "Observation/Observation-335678",
            "display": "Diastolic Blood Pressure"
          }
        ]
      },
      "request": {
        "method": "PUT",
        "url": "http://localhost:8080/cqf-ruler/baseDstu3/DiagnosticReport/DiagnosticReport-335672"
      }
    }
  ]
}