{
  "resourceType": "Bundle",
  "id": "Virgil-Dwayne-Hamilton-6552-Encounter-3805",
  "type": "transaction",
  "entry": [
    {
      "fullUrl": "http://localhost:8080/cqf-ruler/baseDstu3/Encounter/Encounter-3805",
      "resource": {
        "resourceType": "Encounter",
        "id": "Encounter-3805",
        "meta": {
          "profile": [
            "http://hl7.org/fhir/us/hedis/StructureDefinition/hedis-encounter"
          ]
        },
        "status": "finished",
        "class": {
          "system": "http://hl7.org/fhir/encounter-class",
          "code": "outpatient",
          "display": "Outpatient"
        },
        "subject": {
          "reference": "Patient/Patient-6552",
          "display": "Virgil Dwayne Hamilton"
        },
        "participant": [
          {
            "period": {
              "start": "2014-05-30T00:00:00-04:00",
              "end": "2014-05-30T00:00:00-04:00"
            },
            "individual": {
              "reference": "Practitioner/Practitioner-2529",
              "display": "Stanley Floyd Nielsen MD"
            }
          }
        ],
        "period": {
          "start": "2014-05-30T00:00:00-04:00",
          "end": "2014-05-30T00:00:00-04:00"
        },
        "location": [
          {
            "location": {
              "reference": "Location/Location-1102",
              "display": "Pediatric and Adult Medicine"
            }
          }
        ],
        "serviceProvider": {
          "reference": "Organization/Organization-1102",
          "display": "Pediatric and Adult Medicine"
        }
      },
      "request": {
        "method": "PUT",
        "url": "http://localhost:8080/cqf-ruler/baseDstu3/Encounter/Encounter-3805"
      }
    },
    {
      "fullUrl": "http://localhost:8080/cqf-ruler/baseDstu3/Immunization/Immunization-575116",
      "resource": {
        "resourceType": "Immunization",
        "id": "Immunization-575116",
        "status": "completed",
        "notGiven": false,
        "vaccineCode": {
          "coding": [
            {
              "system": "http://hl7.org/fhir/sid/cvx",
              "code": "140",
              "display": "Influenza, seasonal, injectable, preservative free"
            }
          ]
        },
        "patient": {
          "reference": "Patient/Patient-6552",
          "display": "Virgil Dwayne Hamilton"
        },
        "date": "2014-05-30T00:00:00-04:00",
        "primarySource": true,
        "location": {
          "reference": "Location/Location-1102",
          "display": "Pediatric and Adult Medicine"
        },
        "practitioner": [
          {
            "actor": {
              "reference": "Practitioner/Practitioner-2529",
              "display": "Stanley Floyd Nielsen MD"
            }
          }
        ]
      },
      "request": {
        "method": "PUT",
        "url": "http://localhost:8080/cqf-ruler/baseDstu3/Immunization/Immunization-575116"
      }
    },
    {
      "fullUrl": "http://localhost:8080/cqf-ruler/baseDstu3/Procedure/Procedure-603616",
      "resource": {
        "resourceType": "Procedure",
        "id": "Procedure-603616",
        "meta": {
          "profile": [
            "http://hl7.org/fhir/us/hedis/StructureDefinition/hedis-procedure"
          ]
        },
        "status": "completed",
        "code": {
          "coding": [
            {
              "system": "http://snomed.info/sct",
              "code": "713127001",
              "display": "Assessment of alcohol use"
            }
          ]
        },
        "subject": {
          "reference": "Patient/Patient-6552",
          "display": "Virgil Dwayne Hamilton"
        },
        "context": {
          "reference": "Encounter/Encounter-3805",
          "display": "Wellness Visit"
        },
        "performedPeriod": {
          "start": "2014-05-30T00:00:00-04:00",
          "end": "2014-05-30T00:00:00-04:00"
        },
        "performer": [
          {
            "actor": {
              "reference": "Practitioner/Practitioner-2529",
              "display": "Stanley Floyd Nielsen MD"
            }
          }
        ],
        "location": {
          "reference": "Location/Location-1102",
          "display": "Pediatric and Adult Medicine"
        }
      },
      "request": {
        "method": "PUT",
        "url": "http://localhost:8080/cqf-ruler/baseDstu3/Procedure/Procedure-603616"
      }
    },
    {
      "fullUrl": "http://localhost:8080/cqf-ruler/baseDstu3/Observation/Observation-603617",
      "resource": {
        "resourceType": "Observation",
        "id": "Observation-603617",
        "meta": {
          "profile": [
            "http://hl7.org/fhir/us/hedis/StructureDefinition/hedis-observation"
          ]
        },
        "status": "final",
        "code": {
          "coding": [
            {
              "system": "TEST",
              "code": "2.16.840.1.113883.3.464.1003.106.11.1035",
              "display": "Five or more drinks per day"
            }
          ]
        },
        "subject": {
          "reference": "Patient/Patient-6552",
          "display": "Virgil Dwayne Hamilton"
        },
        "context": {
          "reference": "Encounter/Encounter-3805",
          "display": "Wellness Visit"
        },
        "effectiveDateTime": "2014-05-30T00:00:00-04:00",
        "performer": [
          {
            "reference": "Practitioner/Practitioner-2529",
            "display": "Stanley Floyd Nielsen MD"
          }
        ],
        "valueQuantity": {
          "value": 11.0,
          "unit": "score"
        }
      },
      "request": {
        "method": "PUT",
        "url": "http://localhost:8080/cqf-ruler/baseDstu3/Observation/Observation-603617"
      }
    },
    {
      "fullUrl": "http://localhost:8080/cqf-ruler/baseDstu3/Observation/Observation-603618",
      "resource": {
        "resourceType": "Observation",
        "id": "Observation-603618",
        "meta": {
          "profile": [
            "http://hl7.org/fhir/us/hedis/StructureDefinition/hedis-observation"
          ]
        },
        "status": "final",
        "code": {
          "coding": [
            {
              "system": "TEST",
              "code": "2.16.840.1.113883.3.464.1003.107.12.1022",
              "display": "AUDIT-C Total Score (in points)"
            }
          ]
        },
        "subject": {
          "reference": "Patient/Patient-6552",
          "display": "Virgil Dwayne Hamilton"
        },
        "context": {
          "reference": "Encounter/Encounter-3805",
          "display": "Wellness Visit"
        },
        "effectiveDateTime": "2014-05-30T00:00:00-04:00",
        "performer": [
          {
            "reference": "Practitioner/Practitioner-2529",
            "display": "Stanley Floyd Nielsen MD"
          }
        ],
        "valueQuantity": {
          "value": 8.0,
          "unit": "score"
        }
      },
      "request": {
        "method": "PUT",
        "url": "http://localhost:8080/cqf-ruler/baseDstu3/Observation/Observation-603618"
      }
    },
    {
      "fullUrl": "http://localhost:8080/cqf-ruler/baseDstu3/Observation/Observation-603619",
      "resource": {
        "resourceType": "Observation",
        "id": "Observation-603619",
        "meta": {
          "profile": [
            "http://hl7.org/fhir/us/hedis/StructureDefinition/hedis-observation"
          ]
        },
        "status": "final",
        "code": {
          "coding": [
            {
              "system": "http://loinc.org",
              "code": "8480-6",
              "display": "Systolic blood pressure"
            }
          ]
        },
        "subject": {
          "reference": "Patient/Patient-6552",
          "display": "Virgil Dwayne Hamilton"
        },
        "context": {
          "reference": "Encounter/Encounter-3805",
          "display": "Wellness Visit"
        },
        "effectiveDateTime": "2014-05-30T00:00:00-04:00",
        "performer": [
          {
            "reference": "Practitioner/Practitioner-2529",
            "display": "Stanley Floyd Nielsen MD"
          }
        ],
        "valueQuantity": {
          "value": 147.96954840828454,
          "unit": "mmHg"
        }
      },
      "request": {
        "method": "PUT",
        "url": "http://localhost:8080/cqf-ruler/baseDstu3/Observation/Observation-603619"
      }
    },
    {
      "fullUrl": "http://localhost:8080/cqf-ruler/baseDstu3/Observation/Observation-603620",
      "resource": {
        "resourceType": "Observation",
        "id": "Observation-603620",
        "meta": {
          "profile": [
            "http://hl7.org/fhir/us/hedis/StructureDefinition/hedis-observation"
          ]
        },
        "status": "final",
        "code": {
          "coding": [
            {
              "system": "http://loinc.org",
              "code": "8462-4",
              "display": "Diastolic blood pressure"
            }
          ]
        },
        "subject": {
          "reference": "Patient/Patient-6552",
          "display": "Virgil Dwayne Hamilton"
        },
        "context": {
          "reference": "Encounter/Encounter-3805",
          "display": "Wellness Visit"
        },
        "effectiveDateTime": "2014-05-30T00:00:00-04:00",
        "performer": [
          {
            "reference": "Practitioner/Practitioner-2529",
            "display": "Stanley Floyd Nielsen MD"
          }
        ],
        "valueQuantity": {
          "value": 77.8028955504739,
          "unit": "mmHg"
        }
      },
      "request": {
        "method": "PUT",
        "url": "http://localhost:8080/cqf-ruler/baseDstu3/Observation/Observation-603620"
      }
    },
    {
      "fullUrl": "http://localhost:8080/cqf-ruler/baseDstu3/Condition/Condition-603621",
      "resource": {
        "resourceType": "Condition",
        "id": "Condition-603621",
        "meta": {
          "profile": [
            "http://hl7.org/fhir/us/hedis/StructureDefinition/hedis-condition"
          ]
        },
        "clinicalStatus": "active",
        "verificationStatus": "confirmed",
        "code": {
          "coding": [
            {
              "system": "http://snomed.info/sct",
              "code": "59720008",
              "display": "Sustained diastolic hypertension"
            }
          ]
        },
        "subject": {
          "reference": "Patient/Patient-6552",
          "display": "Virgil Dwayne Hamilton"
        },
        "context": {
          "reference": "Encounter/Encounter-3805",
          "display": "Wellness Visit"
        },
        "onsetDateTime": "2014-05-30T00:00:00-04:00",
        "assertedDate": "2014-05-30T00:00:00-04:00",
        "asserter": {
          "reference": "Practitioner/Practitioner-2529",
          "display": "Stanley Floyd Nielsen MD"
        }
      },
      "request": {
        "method": "PUT",
        "url": "http://localhost:8080/cqf-ruler/baseDstu3/Condition/Condition-603621"
      }
    },
    {
      "fullUrl": "http://localhost:8080/cqf-ruler/baseDstu3/Procedure/Procedure-603622",
      "resource": {
        "resourceType": "Procedure",
        "id": "Procedure-603622",
        "meta": {
          "profile": [
            "http://hl7.org/fhir/us/hedis/StructureDefinition/hedis-procedure"
          ]
        },
        "status": "completed",
        "code": {
          "coding": [
            {
              "system": "http://loinc.org",
              "code": "55758-7",
              "display": "Patient Health Questionnaire 2 item (PHQ-2) total score [Reported]"
            }
          ]
        },
        "subject": {
          "reference": "Patient/Patient-6552",
          "display": "Virgil Dwayne Hamilton"
        },
        "context": {
          "reference": "Encounter/Encounter-3805",
          "display": "Wellness Visit"
        },
        "performedPeriod": {
          "start": "2014-05-30T00:00:00-04:00",
          "end": "2014-05-30T00:00:00-04:00"
        },
        "performer": [
          {
            "actor": {
              "reference": "Practitioner/Practitioner-2529",
              "display": "Stanley Floyd Nielsen MD"
            }
          }
        ],
        "location": {
          "reference": "Location/Location-1102",
          "display": "Pediatric and Adult Medicine"
        }
      },
      "request": {
        "method": "PUT",
        "url": "http://localhost:8080/cqf-ruler/baseDstu3/Procedure/Procedure-603622"
      }
    },
    {
      "fullUrl": "http://localhost:8080/cqf-ruler/baseDstu3/Observation/Observation-603623",
      "resource": {
        "resourceType": "Observation",
        "id": "Observation-603623",
        "meta": {
          "profile": [
            "http://hl7.org/fhir/us/hedis/StructureDefinition/hedis-observation"
          ]
        },
        "status": "final",
        "code": {
          "coding": [
            {
              "system": "https://www.cms.gov/Medicare/Coding/MedHCPCSGenInfo",
              "code": "G8510",
              "display": "Screening for depression is documented as negative, a follow-up plan is not required (G8510)"
            }
          ]
        },
        "subject": {
          "reference": "Patient/Patient-6552",
          "display": "Virgil Dwayne Hamilton"
        },
        "context": {
          "reference": "Encounter/Encounter-3805",
          "display": "Wellness Visit"
        },
        "effectiveDateTime": "2014-05-30T00:00:00-04:00",
        "performer": [
          {
            "reference": "Practitioner/Practitioner-2529",
            "display": "Stanley Floyd Nielsen MD"
          }
        ],
        "valueString": "NEGATIVE"
      },
      "request": {
        "method": "PUT",
        "url": "http://localhost:8080/cqf-ruler/baseDstu3/Observation/Observation-603623"
      }
    },
    {
      "fullUrl": "http://localhost:8080/cqf-ruler/baseDstu3/Observation/Observation-603624",
      "resource": {
        "resourceType": "Observation",
        "id": "Observation-603624",
        "meta": {
          "profile": [
            "http://hl7.org/fhir/us/hedis/StructureDefinition/hedis-observation"
          ]
        },
        "status": "final",
        "code": {
          "coding": [
            {
              "system": "http://loinc.org",
              "code": "8302-2",
              "display": "Body Height"
            }
          ]
        },
        "subject": {
          "reference": "Patient/Patient-6552",
          "display": "Virgil Dwayne Hamilton"
        },
        "context": {
          "reference": "Encounter/Encounter-3805",
          "display": "Wellness Visit"
        },
        "effectiveDateTime": "2014-05-30T00:00:00-04:00",
        "performer": [
          {
            "reference": "Practitioner/Practitioner-2529",
            "display": "Stanley Floyd Nielsen MD"
          }
        ],
        "valueQuantity": {
          "value": 167.5,
          "unit": "cm"
        }
      },
      "request": {
        "method": "PUT",
        "url": "http://localhost:8080/cqf-ruler/baseDstu3/Observation/Observation-603624"
      }
    },
    {
      "fullUrl": "http://localhost:8080/cqf-ruler/baseDstu3/Observation/Observation-603625",
      "resource": {
        "resourceType": "Observation",
        "id": "Observation-603625",
        "meta": {
          "profile": [
            "http://hl7.org/fhir/us/hedis/StructureDefinition/hedis-observation"
          ]
        },
        "status": "final",
        "code": {
          "coding": [
            {
              "system": "http://loinc.org",
              "code": "29463-7",
              "display": "Body Weight"
            }
          ]
        },
        "subject": {
          "reference": "Patient/Patient-6552",
          "display": "Virgil Dwayne Hamilton"
        },
        "context": {
          "reference": "Encounter/Encounter-3805",
          "display": "Wellness Visit"
        },
        "effectiveDateTime": "2014-05-30T00:00:00-04:00",
        "performer": [
          {
            "reference": "Practitioner/Practitioner-2529",
            "display": "Stanley Floyd Nielsen MD"
          }
        ],
        "valueQuantity": {
          "value": 78.2,
          "unit": "kg"
        }
      },
      "request": {
        "method": "PUT",
        "url": "http://localhost:8080/cqf-ruler/baseDstu3/Observation/Observation-603625"
      }
    },
    {
      "fullUrl": "http://localhost:8080/cqf-ruler/baseDstu3/Observation/Observation-603626",
      "resource": {
        "resourceType": "Observation",
        "id": "Observation-603626",
        "meta": {
          "profile": [
            "http://hl7.org/fhir/us/hedis/StructureDefinition/hedis-observation"
          ]
        },
        "status": "final",
        "code": {
          "coding": [
            {
              "system": "http://loinc.org",
              "code": "39156-5",
              "display": "Body Mass Index"
            }
          ]
        },
        "subject": {
          "reference": "Patient/Patient-6552",
          "display": "Virgil Dwayne Hamilton"
        },
        "context": {
          "reference": "Encounter/Encounter-3805",
          "display": "Wellness Visit"
        },
        "effectiveDateTime": "2014-05-30T00:00:00-04:00",
        "performer": [
          {
            "reference": "Practitioner/Practitioner-2529",
            "display": "Stanley Floyd Nielsen MD"
          }
        ],
        "valueQuantity": {
          "value": 27.872577411450212,
          "unit": "kg/m2"
        }
      },
      "request": {
        "method": "PUT",
        "url": "http://localhost:8080/cqf-ruler/baseDstu3/Observation/Observation-603626"
      }
    },
    {
      "fullUrl": "http://localhost:8080/cqf-ruler/baseDstu3/Observation/Observation-603629",
      "resource": {
        "resourceType": "Observation",
        "id": "Observation-603629",
        "meta": {
          "profile": [
            "http://hl7.org/fhir/us/hedis/StructureDefinition/hedis-observation"
          ]
        },
        "status": "final",
        "code": {
          "coding": [
            {
              "system": "http://loinc.org",
              "code": "55284-4",
              "display": "Blood Pressure"
            }
          ]
        },
        "subject": {
          "reference": "Patient/Patient-6552",
          "display": "Virgil Dwayne Hamilton"
        },
        "context": {
          "reference": "Encounter/Encounter-3805",
          "display": "Wellness Visit"
        },
        "effectiveDateTime": "2014-05-30T00:00:00-04:00",
        "valueQuantity": {
          "value": 77.8028955504739,
          "unit": "mmHg"
        },
        "component": [
          {
            "code": {
              "coding": [
                {
                  "system": "http://loinc.org",
                  "code": "8480-6",
                  "display": "Systolic Blood Pressure"
                }
              ]
            }
          },
          {
            "code": {
              "coding": [
                {
                  "system": "http://loinc.org",
                  "code": "8462-4",
                  "display": "Diastolic Blood Pressure"
                }
              ]
            }
          }
        ]
      },
      "request": {
        "method": "PUT",
        "url": "http://localhost:8080/cqf-ruler/baseDstu3/Observation/Observation-603629"
      }
    },
    {
      "fullUrl": "http://localhost:8080/cqf-ruler/baseDstu3/Observation/Observation-603631",
      "resource": {
        "resourceType": "Observation",
        "id": "Observation-603631",
        "status": "final",
        "code": {
          "coding": [
            {
              "system": "http://loinc.org",
              "code": "8302-2",
              "display": "Height"
            }
          ]
        },
        "subject": {
          "reference": "Patient/Patient-6552",
          "display": "Virgil Dwayne Hamilton"
        },
        "context": {
          "reference": "Encounter/Encounter-3805",
          "display": "Wellness Visit"
        },
        "effectiveDateTime": "2014-05-30T00:00:00-04:00",
        "performer": [
          {
            "reference": "Practitioner/Practitioner-2529",
            "display": "Stanley Floyd Nielsen MD"
          }
        ],
        "valueQuantity": {
          "value": 167.5,
          "unit": "cm"
        }
      },
      "request": {
        "method": "PUT",
        "url": "http://localhost:8080/cqf-ruler/baseDstu3/Observation/Observation-603631"
      }
    },
    {
      "fullUrl": "http://localhost:8080/cqf-ruler/baseDstu3/Observation/Observation-603632",
      "resource": {
        "resourceType": "Observation",
        "id": "Observation-603632",
        "status": "final",
        "code": {
          "coding": [
            {
              "system": "http://loinc.org",
              "code": "29463-7",
              "display": "Weight"
            }
          ]
        },
        "subject": {
          "reference": "Patient/Patient-6552",
          "display": "Virgil Dwayne Hamilton"
        },
        "context": {
          "reference": "Encounter/Encounter-3805",
          "display": "Wellness Visit"
        },
        "effectiveDateTime": "2014-05-30T00:00:00-04:00",
        "performer": [
          {
            "reference": "Practitioner/Practitioner-2529",
            "display": "Stanley Floyd Nielsen MD"
          }
        ],
        "valueQuantity": {
          "value": 78.2,
          "unit": "kg"
        }
      },
      "request": {
        "method": "PUT",
        "url": "http://localhost:8080/cqf-ruler/baseDstu3/Observation/Observation-603632"
      }
    },
    {
      "fullUrl": "http://localhost:8080/cqf-ruler/baseDstu3/Observation/Observation-603633",
      "resource": {
        "resourceType": "Observation",
        "id": "Observation-603633",
        "status": "final",
        "code": {
          "coding": [
            {
              "system": "http://loinc.org",
              "code": "39156-5",
              "display": "BMI"
            }
          ]
        },
        "subject": {
          "reference": "Patient/Patient-6552",
          "display": "Virgil Dwayne Hamilton"
        },
        "context": {
          "reference": "Encounter/Encounter-3805",
          "display": "Wellness Visit"
        },
        "effectiveDateTime": "2014-05-30T00:00:00-04:00",
        "performer": [
          {
            "reference": "Practitioner/Practitioner-2529",
            "display": "Stanley Floyd Nielsen MD"
          }
        ],
        "valueQuantity": {
          "value": 27.872577411450212,
          "unit": "kg/m2"
        }
      },
      "request": {
        "method": "PUT",
        "url": "http://localhost:8080/cqf-ruler/baseDstu3/Observation/Observation-603633"
      }
    },
    {
      "fullUrl": "http://localhost:8080/cqf-ruler/baseDstu3/Observation/Observation-603634",
      "resource": {
        "resourceType": "Observation",
        "id": "Observation-603634",
        "status": "final",
        "code": {
          "coding": [
            {
              "system": "http://loinc.org",
              "code": "8310-5",
              "display": "Temperature"
            }
          ]
        },
        "subject": {
          "reference": "Patient/Patient-6552",
          "display": "Virgil Dwayne Hamilton"
        },
        "context": {
          "reference": "Encounter/Encounter-3805",
          "display": "Wellness Visit"
        },
        "effectiveDateTime": "2014-05-30T00:00:00-04:00",
        "performer": [
          {
            "reference": "Practitioner/Practitioner-2529",
            "display": "Stanley Floyd Nielsen MD"
          }
        ],
        "valueQuantity": {
          "value": 37.0,
          "unit": "C"
        }
      },
      "request": {
        "method": "PUT",
        "url": "http://localhost:8080/cqf-ruler/baseDstu3/Observation/Observation-603634"
      }
    },
    {
      "fullUrl": "http://localhost:8080/cqf-ruler/baseDstu3/Observation/Observation-603635",
      "resource": {
        "resourceType": "Observation",
        "id": "Observation-603635",
        "status": "final",
        "code": {
          "coding": [
            {
              "system": "http://loinc.org",
              "code": "8459-0",
              "display": "Systolic Blood Pressure"
            }
          ]
        },
        "subject": {
          "reference": "Patient/Patient-6552",
          "display": "Virgil Dwayne Hamilton"
        },
        "context": {
          "reference": "Encounter/Encounter-3805",
          "display": "Wellness Visit"
        },
        "effectiveDateTime": "2014-05-30T00:00:00-04:00",
        "performer": [
          {
            "reference": "Practitioner/Practitioner-2529",
            "display": "Stanley Floyd Nielsen MD"
          }
        ],
        "valueQuantity": {
          "value": 147.96954840828454,
          "unit": "mmHg"
        }
      },
      "request": {
        "method": "PUT",
        "url": "http://localhost:8080/cqf-ruler/baseDstu3/Observation/Observation-603635"
      }
    },
    {
      "fullUrl": "http://localhost:8080/cqf-ruler/baseDstu3/Observation/Observation-603636",
      "resource": {
        "resourceType": "Observation",
        "id": "Observation-603636",
        "status": "final",
        "code": {
          "coding": [
            {
              "system": "http://loinc.org",
              "code": "8453-3",
              "display": "Diastolic Blood Pressure"
            }
          ]
        },
        "subject": {
          "reference": "Patient/Patient-6552",
          "display": "Virgil Dwayne Hamilton"
        },
        "context": {
          "reference": "Encounter/Encounter-3805",
          "display": "Wellness Visit"
        },
        "effectiveDateTime": "2014-05-30T00:00:00-04:00",
        "performer": [
          {
            "reference": "Practitioner/Practitioner-2529",
            "display": "Stanley Floyd Nielsen MD"
          }
        ],
        "valueQuantity": {
          "value": 77.8028955504739,
          "unit": "mmHg"
        }
      },
      "request": {
        "method": "PUT",
        "url": "http://localhost:8080/cqf-ruler/baseDstu3/Observation/Observation-603636"
      }
    },
    {
      "fullUrl": "http://localhost:8080/cqf-ruler/baseDstu3/DiagnosticReport/DiagnosticReport-603630",
      "resource": {
        "resourceType": "DiagnosticReport",
        "id": "DiagnosticReport-603630",
        "meta": {
          "profile": [
            "http://hl7.org/fhir/us/hedis/StructureDefinition/hedis-diagnosticreport"
          ]
        },
        "status": "final",
        "category": {
          "coding": [
            {
              "system": "http://hl7.org/fhir/ValueSet/diagnostic-service-sections",
              "code": "LAB",
              "display": "Laboratory"
            }
          ]
        },
        "code": {
          "coding": [
            {
              "system": "http://loinc.org",
              "code": "8716-3",
              "display": "Vital Signs Panel"
            }
          ]
        },
        "subject": {
          "reference": "Patient/Patient-6552",
          "display": "Virgil Dwayne Hamilton"
        },
        "context": {
          "reference": "Encounter/Encounter-3805",
          "display": "Wellness Visit"
        },
        "effectivePeriod": {
          "start": "2014-05-30T00:00:00-04:00",
          "end": "2014-05-30T00:00:00-04:00"
        },
        "issued": "2014-05-30T00:00:00.000-04:00",
        "result": [
          {
            "reference": "Observation/Observation-603631",
            "display": "Height"
          },
          {
            "reference": "Observation/Observation-603632",
            "display": "Weight"
          },
          {
            "reference": "Observation/Observation-603633",
            "display": "BMI"
          },
          {
            "reference": "Observation/Observation-603634",
            "display": "Temperature"
          },
          {
            "reference": "Observation/Observation-603635",
            "display": "Systolic Blood Pressure"
          },
          {
            "reference": "Observation/Observation-603636",
            "display": "Diastolic Blood Pressure"
          }
        ]
      },
      "request": {
        "method": "PUT",
        "url": "http://localhost:8080/cqf-ruler/baseDstu3/DiagnosticReport/DiagnosticReport-603630"
      }
    }
  ]
}