{
  "resourceType": "Bundle",
  "id": "Pauline-Shepherd-Sweeney-6499-Encounter-966",
  "type": "transaction",
  "entry": [
    {
      "fullUrl": "http://localhost:8080/cqf-ruler/baseDstu3/Encounter/Encounter-966",
      "resource": {
        "resourceType": "Encounter",
        "id": "Encounter-966",
        "status": "finished",
        "class": {
          "system": "http://hl7.org/fhir/encounter-class",
          "code": "outpatient",
          "display": "Inpatient"
        },
        "subject": {
          "reference": "Patient/Patient-6499",
          "display": "Pauline Shepherd Sweeney"
        },
        "participant": [
          {
            "period": {
              "start": "1998-07-10T00:00:00-04:00",
              "end": "1998-07-10T00:00:00-04:00"
            },
            "individual": {
              "reference": "Practitioner/Practitioner-2516",
              "display": "Agnes Tammy Larson MD"
            }
          }
        ],
        "period": {
          "start": "1998-07-10T00:00:00-04:00",
          "end": "1998-07-10T00:00:00-04:00"
        },
        "location": [
          {
            "location": {
              "reference": "Location/Location-1101",
              "display": "McKinley Health Center"
            }
          }
        ],
        "serviceProvider": {
          "reference": "Organization/Organization-1101",
          "display": "McKinley Health Center"
        }
      },
      "request": {
        "method": "PUT",
        "url": "http://localhost:8080/cqf-ruler/baseDstu3/Encounter/Encounter-966"
      }
    },
    {
      "fullUrl": "http://localhost:8080/cqf-ruler/baseDstu3/Immunization/Immunization-187432",
      "resource": {
        "resourceType": "Immunization",
        "id": "Immunization-187432",
        "status": "completed",
        "notGiven": false,
        "vaccineCode": {
          "coding": [
            {
              "system": "http://hl7.org/fhir/sid/cvx",
              "code": "140",
              "display": "Influenza, seasonal, injectable, preservative free"
            }
          ]
        },
        "patient": {
          "reference": "Patient/Patient-6499",
          "display": "Pauline Shepherd Sweeney"
        },
        "date": "1998-07-10T00:00:00-04:00",
        "primarySource": true,
        "location": {
          "reference": "Location/Location-1101",
          "display": "McKinley Health Center"
        },
        "practitioner": [
          {
            "actor": {
              "reference": "Practitioner/Practitioner-2516",
              "display": "Agnes Tammy Larson MD"
            }
          }
        ]
      },
      "request": {
        "method": "PUT",
        "url": "http://localhost:8080/cqf-ruler/baseDstu3/Immunization/Immunization-187432"
      }
    },
    {
      "fullUrl": "http://localhost:8080/cqf-ruler/baseDstu3/Immunization/Immunization-187433",
      "resource": {
        "resourceType": "Immunization",
        "id": "Immunization-187433",
        "status": "completed",
        "notGiven": false,
        "vaccineCode": {
          "coding": [
            {
              "system": "http://hl7.org/fhir/sid/cvx",
              "code": "113",
              "display": "Td (adult) preservative free"
            }
          ]
        },
        "patient": {
          "reference": "Patient/Patient-6499",
          "display": "Pauline Shepherd Sweeney"
        },
        "date": "1998-07-10T00:00:00-04:00",
        "primarySource": true,
        "location": {
          "reference": "Location/Location-1101",
          "display": "McKinley Health Center"
        },
        "practitioner": [
          {
            "actor": {
              "reference": "Practitioner/Practitioner-2516",
              "display": "Agnes Tammy Larson MD"
            }
          }
        ]
      },
      "request": {
        "method": "PUT",
        "url": "http://localhost:8080/cqf-ruler/baseDstu3/Immunization/Immunization-187433"
      }
    },
    {
      "fullUrl": "http://localhost:8080/cqf-ruler/baseDstu3/Procedure/Procedure-209421",
      "resource": {
        "resourceType": "Procedure",
        "id": "Procedure-209421",
        "status": "completed",
        "code": {
          "coding": [
            {
              "system": "http://www.ama-assn.org/go/cpt",
              "code": "77067",
              "display": "Screening mammography, bilateral (2-view study of each breast), including computer-aided detection (CAD) when performed"
            }
          ]
        },
        "subject": {
          "reference": "Patient/Patient-6499",
          "display": "Pauline Shepherd Sweeney"
        },
        "context": {
          "reference": "Encounter/Encounter-966",
          "display": "Wellness Visit"
        },
        "performedPeriod": {
          "start": "1998-07-10T00:00:00-04:00",
          "end": "1998-07-10T00:00:00-04:00"
        },
        "performer": [
          {
            "actor": {
              "reference": "Practitioner/Practitioner-2516",
              "display": "Agnes Tammy Larson MD"
            }
          }
        ],
        "location": {
          "reference": "Location/Location-1101",
          "display": "McKinley Health Center"
        }
      },
      "request": {
        "method": "PUT",
        "url": "http://localhost:8080/cqf-ruler/baseDstu3/Procedure/Procedure-209421"
      }
    },
    {
      "fullUrl": "http://localhost:8080/cqf-ruler/baseDstu3/Observation/Observation-209423",
      "resource": {
        "resourceType": "Observation",
        "id": "Observation-209423",
        "status": "final",
        "code": {
          "coding": [
            {
              "system": "http://snomed.info/sct",
              "code": "397145000",
              "display": "Mammography assessment (Category 5) - Highly suggestive of malignancy"
            }
          ]
        },
        "subject": {
          "reference": "Patient/Patient-6499",
          "display": "Pauline Shepherd Sweeney"
        },
        "context": {
          "reference": "Encounter/Encounter-966",
          "display": "Wellness Visit"
        },
        "effectivePeriod": {
          "start": "1998-07-10T00:00:00-04:00",
          "end": "1998-07-10T00:00:00-04:00"
        },
        "performer": [
          {
            "reference": "Practitioner/Practitioner-2516",
            "display": "Agnes Tammy Larson MD"
          }
        ],
        "valueString": "POSITIVE"
      },
      "request": {
        "method": "PUT",
        "url": "http://localhost:8080/cqf-ruler/baseDstu3/Observation/Observation-209423"
      }
    },
    {
      "fullUrl": "http://localhost:8080/cqf-ruler/baseDstu3/DiagnosticReport/DiagnosticReport-209424",
      "resource": {
        "resourceType": "DiagnosticReport",
        "id": "DiagnosticReport-209424",
        "status": "final",
        "code": {
          "coding": [
            {
              "system": "http://loinc.org",
              "code": "42169-3",
              "display": "Breast - left FFD mammogram diagnostic"
            }
          ]
        },
        "subject": {
          "reference": "Patient/Patient-6499",
          "display": "Pauline Shepherd Sweeney"
        },
        "context": {
          "reference": "Encounter/Encounter-966",
          "display": "Wellness Visit"
        },
        "effectivePeriod": {
          "start": "1998-07-10T00:00:00-04:00",
          "end": "1998-07-10T00:00:00-04:00"
        },
        "issued": "1998-07-10T00:00:00.000-04:00",
        "result": [
          {
            "reference": "Observation/Observation-209423",
            "display": "Breast_Cancer_Observation"
          }
        ]
      },
      "request": {
        "method": "PUT",
        "url": "http://localhost:8080/cqf-ruler/baseDstu3/DiagnosticReport/DiagnosticReport-209424"
      }
    },
    {
      "fullUrl": "http://localhost:8080/cqf-ruler/baseDstu3/Observation/Observation-209425",
      "resource": {
        "resourceType": "Observation",
        "id": "Observation-209425",
        "status": "final",
        "code": {
          "coding": [
            {
              "system": "http://loinc.org",
              "code": "8480-6",
              "display": "Systolic blood pressure"
            }
          ]
        },
        "subject": {
          "reference": "Patient/Patient-6499",
          "display": "Pauline Shepherd Sweeney"
        },
        "context": {
          "reference": "Encounter/Encounter-966",
          "display": "Wellness Visit"
        },
        "effectivePeriod": {
          "start": "1998-07-10T00:00:00-04:00",
          "end": "1998-07-10T00:00:00-04:00"
        },
        "performer": [
          {
            "reference": "Practitioner/Practitioner-2516",
            "display": "Agnes Tammy Larson MD"
          }
        ],
        "valueQuantity": {
          "value": 103.01521072441315,
          "unit": "mmHg"
        }
      },
      "request": {
        "method": "PUT",
        "url": "http://localhost:8080/cqf-ruler/baseDstu3/Observation/Observation-209425"
      }
    },
    {
      "fullUrl": "http://localhost:8080/cqf-ruler/baseDstu3/Observation/Observation-209426",
      "resource": {
        "resourceType": "Observation",
        "id": "Observation-209426",
        "status": "final",
        "code": {
          "coding": [
            {
              "system": "http://loinc.org",
              "code": "8462-4",
              "display": "Diastolic blood pressure"
            }
          ]
        },
        "subject": {
          "reference": "Patient/Patient-6499",
          "display": "Pauline Shepherd Sweeney"
        },
        "context": {
          "reference": "Encounter/Encounter-966",
          "display": "Wellness Visit"
        },
        "effectivePeriod": {
          "start": "1998-07-10T00:00:00-04:00",
          "end": "1998-07-10T00:00:00-04:00"
        },
        "performer": [
          {
            "reference": "Practitioner/Practitioner-2516",
            "display": "Agnes Tammy Larson MD"
          }
        ],
        "valueQuantity": {
          "value": 114.37809269118424,
          "unit": "mmHg"
        }
      },
      "request": {
        "method": "PUT",
        "url": "http://localhost:8080/cqf-ruler/baseDstu3/Observation/Observation-209426"
      }
    },
    {
      "fullUrl": "http://localhost:8080/cqf-ruler/baseDstu3/Condition/Condition-209427",
      "resource": {
        "resourceType": "Condition",
        "id": "Condition-209427",
        "clinicalStatus": "active",
        "verificationStatus": "confirmed",
        "code": {
          "coding": [
            {
              "system": "http://snomed.info/sct",
              "code": "48146000",
              "display": "Diastolic hypertension"
            }
          ]
        },
        "subject": {
          "reference": "Patient/Patient-6499",
          "display": "Pauline Shepherd Sweeney"
        },
        "context": {
          "reference": "Encounter/Encounter-966",
          "display": "Wellness Visit"
        },
        "onsetDateTime": "1998-07-10T00:00:00-04:00",
        "assertedDate": "1998-07-10T00:00:00-04:00",
        "asserter": {
          "reference": "Practitioner/Practitioner-2516",
          "display": "Agnes Tammy Larson MD"
        }
      },
      "request": {
        "method": "PUT",
        "url": "http://localhost:8080/cqf-ruler/baseDstu3/Condition/Condition-209427"
      }
    },
    {
      "fullUrl": "http://localhost:8080/cqf-ruler/baseDstu3/Procedure/Procedure-209428",
      "resource": {
        "resourceType": "Procedure",
        "id": "Procedure-209428",
        "status": "completed",
        "code": {
          "coding": [
            {
              "system": "http://www.ama-assn.org/go/cpt",
              "code": "82270",
              "display": "Blood, occult, by peroxidase activity (eg, guaiac), qualitative; feces, consecutive collected specimens with single determination, for colorectal neoplasm screening (ie, patient was provided 3 cards or single triple card for consecutive collection)"
            }
          ]
        },
        "subject": {
          "reference": "Patient/Patient-6499",
          "display": "Pauline Shepherd Sweeney"
        },
        "context": {
          "reference": "Encounter/Encounter-966",
          "display": "Wellness Visit"
        },
        "performedPeriod": {
          "start": "1998-07-10T00:00:00-04:00",
          "end": "1998-07-10T00:00:00-04:00"
        },
        "performer": [
          {
            "actor": {
              "reference": "Practitioner/Practitioner-2516",
              "display": "Agnes Tammy Larson MD"
            }
          }
        ],
        "location": {
          "reference": "Location/Location-1101",
          "display": "McKinley Health Center"
        }
      },
      "request": {
        "method": "PUT",
        "url": "http://localhost:8080/cqf-ruler/baseDstu3/Procedure/Procedure-209428"
      }
    },
    {
      "fullUrl": "http://localhost:8080/cqf-ruler/baseDstu3/Observation/Observation-209429",
      "resource": {
        "resourceType": "Observation",
        "id": "Observation-209429",
        "status": "final",
        "code": {
          "coding": [
            {
              "system": "http://www.ama-assn.org/go/cpt",
              "code": "82274",
              "display": "Blood, occult, by fecal hemoglobin determination by immunoassay, qualitative, feces, 1-3 simultaneous determinations"
            }
          ]
        },
        "subject": {
          "reference": "Patient/Patient-6499",
          "display": "Pauline Shepherd Sweeney"
        },
        "context": {
          "reference": "Encounter/Encounter-966",
          "display": "Wellness Visit"
        },
        "effectivePeriod": {
          "start": "1998-07-10T00:00:00-04:00",
          "end": "1998-07-10T00:00:00-04:00"
        },
        "performer": [
          {
            "reference": "Practitioner/Practitioner-2516",
            "display": "Agnes Tammy Larson MD"
          }
        ],
        "valueString": "NEGATIVE"
      },
      "request": {
        "method": "PUT",
        "url": "http://localhost:8080/cqf-ruler/baseDstu3/Observation/Observation-209429"
      }
    },
    {
      "fullUrl": "http://localhost:8080/cqf-ruler/baseDstu3/Observation/Observation-209430",
      "resource": {
        "resourceType": "Observation",
        "id": "Observation-209430",
        "status": "final",
        "code": {
          "coding": [
            {
              "system": "http://loinc.org",
              "code": "8302-2",
              "display": "Body Height"
            }
          ]
        },
        "subject": {
          "reference": "Patient/Patient-6499",
          "display": "Pauline Shepherd Sweeney"
        },
        "context": {
          "reference": "Encounter/Encounter-966",
          "display": "Wellness Visit"
        },
        "effectivePeriod": {
          "start": "1998-07-10T00:00:00-04:00",
          "end": "1998-07-10T00:00:00-04:00"
        },
        "performer": [
          {
            "reference": "Practitioner/Practitioner-2516",
            "display": "Agnes Tammy Larson MD"
          }
        ],
        "valueQuantity": {
          "value": 167.7,
          "unit": "cm"
        }
      },
      "request": {
        "method": "PUT",
        "url": "http://localhost:8080/cqf-ruler/baseDstu3/Observation/Observation-209430"
      }
    },
    {
      "fullUrl": "http://localhost:8080/cqf-ruler/baseDstu3/Observation/Observation-209431",
      "resource": {
        "resourceType": "Observation",
        "id": "Observation-209431",
        "status": "final",
        "code": {
          "coding": [
            {
              "system": "http://loinc.org",
              "code": "29463-7",
              "display": "Body Weight"
            }
          ]
        },
        "subject": {
          "reference": "Patient/Patient-6499",
          "display": "Pauline Shepherd Sweeney"
        },
        "context": {
          "reference": "Encounter/Encounter-966",
          "display": "Wellness Visit"
        },
        "effectivePeriod": {
          "start": "1998-07-10T00:00:00-04:00",
          "end": "1998-07-10T00:00:00-04:00"
        },
        "performer": [
          {
            "reference": "Practitioner/Practitioner-2516",
            "display": "Agnes Tammy Larson MD"
          }
        ],
        "valueQuantity": {
          "value": 83.08814871427872,
          "unit": "kg"
        }
      },
      "request": {
        "method": "PUT",
        "url": "http://localhost:8080/cqf-ruler/baseDstu3/Observation/Observation-209431"
      }
    },
    {
      "fullUrl": "http://localhost:8080/cqf-ruler/baseDstu3/Observation/Observation-209432",
      "resource": {
        "resourceType": "Observation",
        "id": "Observation-209432",
        "status": "final",
        "code": {
          "coding": [
            {
              "system": "http://loinc.org",
              "code": "39156-5",
              "display": "Body Mass Index"
            }
          ]
        },
        "subject": {
          "reference": "Patient/Patient-6499",
          "display": "Pauline Shepherd Sweeney"
        },
        "context": {
          "reference": "Encounter/Encounter-966",
          "display": "Wellness Visit"
        },
        "effectivePeriod": {
          "start": "1998-07-10T00:00:00-04:00",
          "end": "1998-07-10T00:00:00-04:00"
        },
        "performer": [
          {
            "reference": "Practitioner/Practitioner-2516",
            "display": "Agnes Tammy Larson MD"
          }
        ],
        "valueQuantity": {
          "value": 29.544249166537323,
          "unit": "kg/m2"
        }
      },
      "request": {
        "method": "PUT",
        "url": "http://localhost:8080/cqf-ruler/baseDstu3/Observation/Observation-209432"
      }
    },
    {
      "fullUrl": "http://localhost:8080/cqf-ruler/baseDstu3/Observation/Observation-209435",
      "resource": {
        "resourceType": "Observation",
        "id": "Observation-209435",
        "status": "final",
        "category": [
          {
            "coding": [
              {
                "system": "http://hl7.org/fhir/observation-category",
                "code": "vital-signs",
                "display": "vital-signs"
              }
            ]
          }
        ],
        "code": {
          "coding": [
            {
              "system": "http://loinc.org",
              "code": "55284-4",
              "display": "Blood Pressure"
            }
          ]
        },
        "subject": {
          "reference": "Patient/Patient-6499",
          "display": "Pauline Shepherd Sweeney"
        },
        "context": {
          "reference": "Encounter/Encounter-966",
          "display": "Wellness Visit"
        },
        "effectivePeriod": {
          "start": "1998-07-10T00:00:00-04:00",
          "end": "1998-07-10T00:00:00-04:00"
        },
        "valueQuantity": {
          "value": 114.37809269118424,
          "unit": "mmHg"
        },
        "component": [
          {
            "code": {
              "coding": [
                {
                  "system": "http://loinc.org",
                  "code": "8480-6",
                  "display": "Systolic Blood Pressure"
                }
              ]
            }
          },
          {
            "code": {
              "coding": [
                {
                  "system": "http://loinc.org",
                  "code": "8462-4",
                  "display": "Diastolic Blood Pressure"
                }
              ]
            }
          }
        ]
      },
      "request": {
        "method": "PUT",
        "url": "http://localhost:8080/cqf-ruler/baseDstu3/Observation/Observation-209435"
      }
    },
    {
      "fullUrl": "http://localhost:8080/cqf-ruler/baseDstu3/Observation/Observation-209436",
      "resource": {
        "resourceType": "Observation",
        "id": "Observation-209436",
        "status": "final",
        "code": {
          "coding": [
            {
              "system": "http://loinc.org",
              "code": "4548-4",
              "display": "Hemoglobin A1c/Hemoglobin.total in Blood"
            }
          ]
        },
        "subject": {
          "reference": "Patient/Patient-6499",
          "display": "Pauline Shepherd Sweeney"
        },
        "context": {
          "reference": "Encounter/Encounter-966",
          "display": "Wellness Visit"
        },
        "effectivePeriod": {
          "start": "1998-07-10T00:00:00-04:00",
          "end": "1998-07-10T00:00:00-04:00"
        },
        "performer": [
          {
            "reference": "Practitioner/Practitioner-2516",
            "display": "Agnes Tammy Larson MD"
          }
        ],
        "valueQuantity": {
          "value": 5.575624560852251,
          "unit": "%"
        }
      },
      "request": {
        "method": "PUT",
        "url": "http://localhost:8080/cqf-ruler/baseDstu3/Observation/Observation-209436"
      }
    },
    {
      "fullUrl": "http://localhost:8080/cqf-ruler/baseDstu3/Observation/Observation-209437",
      "resource": {
        "resourceType": "Observation",
        "id": "Observation-209437",
        "status": "final",
        "code": {
          "coding": [
            {
              "system": "http://loinc.org",
              "code": "2339-0",
              "display": "Glucose"
            }
          ]
        },
        "subject": {
          "reference": "Patient/Patient-6499",
          "display": "Pauline Shepherd Sweeney"
        },
        "context": {
          "reference": "Encounter/Encounter-966",
          "display": "Wellness Visit"
        },
        "effectivePeriod": {
          "start": "1998-07-10T00:00:00-04:00",
          "end": "1998-07-10T00:00:00-04:00"
        },
        "performer": [
          {
            "reference": "Practitioner/Practitioner-2516",
            "display": "Agnes Tammy Larson MD"
          }
        ],
        "valueQuantity": {
          "value": 93.2668319273243,
          "unit": "mg/dL"
        }
      },
      "request": {
        "method": "PUT",
        "url": "http://localhost:8080/cqf-ruler/baseDstu3/Observation/Observation-209437"
      }
    },
    {
      "fullUrl": "http://localhost:8080/cqf-ruler/baseDstu3/Observation/Observation-209438",
      "resource": {
        "resourceType": "Observation",
        "id": "Observation-209438",
        "status": "final",
        "code": {
          "coding": [
            {
              "system": "http://loinc.org",
              "code": "6299-2",
              "display": "Urea Nitrogen"
            }
          ]
        },
        "subject": {
          "reference": "Patient/Patient-6499",
          "display": "Pauline Shepherd Sweeney"
        },
        "context": {
          "reference": "Encounter/Encounter-966",
          "display": "Wellness Visit"
        },
        "effectivePeriod": {
          "start": "1998-07-10T00:00:00-04:00",
          "end": "1998-07-10T00:00:00-04:00"
        },
        "performer": [
          {
            "reference": "Practitioner/Practitioner-2516",
            "display": "Agnes Tammy Larson MD"
          }
        ],
        "valueQuantity": {
          "value": 17.663417069921522,
          "unit": "mg/dL"
        }
      },
      "request": {
        "method": "PUT",
        "url": "http://localhost:8080/cqf-ruler/baseDstu3/Observation/Observation-209438"
      }
    },
    {
      "fullUrl": "http://localhost:8080/cqf-ruler/baseDstu3/Observation/Observation-209439",
      "resource": {
        "resourceType": "Observation",
        "id": "Observation-209439",
        "status": "final",
        "code": {
          "coding": [
            {
              "system": "http://loinc.org",
              "code": "38483-4",
              "display": "Creatinine"
            }
          ]
        },
        "subject": {
          "reference": "Patient/Patient-6499",
          "display": "Pauline Shepherd Sweeney"
        },
        "context": {
          "reference": "Encounter/Encounter-966",
          "display": "Wellness Visit"
        },
        "effectivePeriod": {
          "start": "1998-07-10T00:00:00-04:00",
          "end": "1998-07-10T00:00:00-04:00"
        },
        "performer": [
          {
            "reference": "Practitioner/Practitioner-2516",
            "display": "Agnes Tammy Larson MD"
          }
        ],
        "valueQuantity": {
          "value": 2.1419166604104656,
          "unit": "mg/dL"
        }
      },
      "request": {
        "method": "PUT",
        "url": "http://localhost:8080/cqf-ruler/baseDstu3/Observation/Observation-209439"
      }
    },
    {
      "fullUrl": "http://localhost:8080/cqf-ruler/baseDstu3/Observation/Observation-209440",
      "resource": {
        "resourceType": "Observation",
        "id": "Observation-209440",
        "status": "final",
        "code": {
          "coding": [
            {
              "system": "http://loinc.org",
              "code": "49765-1",
              "display": "Calcium"
            }
          ]
        },
        "subject": {
          "reference": "Patient/Patient-6499",
          "display": "Pauline Shepherd Sweeney"
        },
        "context": {
          "reference": "Encounter/Encounter-966",
          "display": "Wellness Visit"
        },
        "effectivePeriod": {
          "start": "1998-07-10T00:00:00-04:00",
          "end": "1998-07-10T00:00:00-04:00"
        },
        "performer": [
          {
            "reference": "Practitioner/Practitioner-2516",
            "display": "Agnes Tammy Larson MD"
          }
        ],
        "valueQuantity": {
          "value": 1.6975952205623432,
          "unit": "mmol/L"
        }
      },
      "request": {
        "method": "PUT",
        "url": "http://localhost:8080/cqf-ruler/baseDstu3/Observation/Observation-209440"
      }
    },
    {
      "fullUrl": "http://localhost:8080/cqf-ruler/baseDstu3/Observation/Observation-209441",
      "resource": {
        "resourceType": "Observation",
        "id": "Observation-209441",
        "status": "final",
        "code": {
          "coding": [
            {
              "system": "http://loinc.org",
              "code": "2947-0",
              "display": "Sodium"
            }
          ]
        },
        "subject": {
          "reference": "Patient/Patient-6499",
          "display": "Pauline Shepherd Sweeney"
        },
        "context": {
          "reference": "Encounter/Encounter-966",
          "display": "Wellness Visit"
        },
        "effectivePeriod": {
          "start": "1998-07-10T00:00:00-04:00",
          "end": "1998-07-10T00:00:00-04:00"
        },
        "performer": [
          {
            "reference": "Practitioner/Practitioner-2516",
            "display": "Agnes Tammy Larson MD"
          }
        ],
        "valueQuantity": {
          "value": 139.80973243101144,
          "unit": "mmol/L"
        }
      },
      "request": {
        "method": "PUT",
        "url": "http://localhost:8080/cqf-ruler/baseDstu3/Observation/Observation-209441"
      }
    },
    {
      "fullUrl": "http://localhost:8080/cqf-ruler/baseDstu3/Observation/Observation-209442",
      "resource": {
        "resourceType": "Observation",
        "id": "Observation-209442",
        "status": "final",
        "code": {
          "coding": [
            {
              "system": "http://loinc.org",
              "code": "6298-4",
              "display": "Potassium"
            }
          ]
        },
        "subject": {
          "reference": "Patient/Patient-6499",
          "display": "Pauline Shepherd Sweeney"
        },
        "context": {
          "reference": "Encounter/Encounter-966",
          "display": "Wellness Visit"
        },
        "effectivePeriod": {
          "start": "1998-07-10T00:00:00-04:00",
          "end": "1998-07-10T00:00:00-04:00"
        },
        "performer": [
          {
            "reference": "Practitioner/Practitioner-2516",
            "display": "Agnes Tammy Larson MD"
          }
        ],
        "valueQuantity": {
          "value": 3.086739257332568,
          "unit": "mmol/L"
        }
      },
      "request": {
        "method": "PUT",
        "url": "http://localhost:8080/cqf-ruler/baseDstu3/Observation/Observation-209442"
      }
    },
    {
      "fullUrl": "http://localhost:8080/cqf-ruler/baseDstu3/Observation/Observation-209443",
      "resource": {
        "resourceType": "Observation",
        "id": "Observation-209443",
        "status": "final",
        "code": {
          "coding": [
            {
              "system": "http://loinc.org",
              "code": "2069-3",
              "display": "Chloride"
            }
          ]
        },
        "subject": {
          "reference": "Patient/Patient-6499",
          "display": "Pauline Shepherd Sweeney"
        },
        "context": {
          "reference": "Encounter/Encounter-966",
          "display": "Wellness Visit"
        },
        "effectivePeriod": {
          "start": "1998-07-10T00:00:00-04:00",
          "end": "1998-07-10T00:00:00-04:00"
        },
        "performer": [
          {
            "reference": "Practitioner/Practitioner-2516",
            "display": "Agnes Tammy Larson MD"
          }
        ],
        "valueQuantity": {
          "value": 108.72660839061935,
          "unit": "mmol/L"
        }
      },
      "request": {
        "method": "PUT",
        "url": "http://localhost:8080/cqf-ruler/baseDstu3/Observation/Observation-209443"
      }
    },
    {
      "fullUrl": "http://localhost:8080/cqf-ruler/baseDstu3/Observation/Observation-209444",
      "resource": {
        "resourceType": "Observation",
        "id": "Observation-209444",
        "status": "final",
        "code": {
          "coding": [
            {
              "system": "http://loinc.org",
              "code": "20565-8",
              "display": "Carbon Dioxide"
            }
          ]
        },
        "subject": {
          "reference": "Patient/Patient-6499",
          "display": "Pauline Shepherd Sweeney"
        },
        "context": {
          "reference": "Encounter/Encounter-966",
          "display": "Wellness Visit"
        },
        "effectivePeriod": {
          "start": "1998-07-10T00:00:00-04:00",
          "end": "1998-07-10T00:00:00-04:00"
        },
        "performer": [
          {
            "reference": "Practitioner/Practitioner-2516",
            "display": "Agnes Tammy Larson MD"
          }
        ],
        "valueQuantity": {
          "value": 23.086908112674305,
          "unit": "mmol/L"
        }
      },
      "request": {
        "method": "PUT",
        "url": "http://localhost:8080/cqf-ruler/baseDstu3/Observation/Observation-209444"
      }
    },
    {
      "fullUrl": "http://localhost:8080/cqf-ruler/baseDstu3/DiagnosticReport/DiagnosticReport-209445",
      "resource": {
        "resourceType": "DiagnosticReport",
        "id": "DiagnosticReport-209445",
        "status": "final",
        "code": {
          "coding": [
            {
              "system": "http://loinc.org",
              "code": "51990-0",
              "display": "Basic Metabolic Panel"
            }
          ]
        },
        "subject": {
          "reference": "Patient/Patient-6499",
          "display": "Pauline Shepherd Sweeney"
        },
        "context": {
          "reference": "Encounter/Encounter-966",
          "display": "Wellness Visit"
        },
        "effectivePeriod": {
          "start": "1998-07-10T00:00:00-04:00",
          "end": "1998-07-10T00:00:00-04:00"
        },
        "issued": "1998-07-10T00:00:00.000-04:00",
        "result": [
          {
            "reference": "Observation/Observation-209437",
            "display": "Record_Glucose"
          },
          {
            "reference": "Observation/Observation-209438",
            "display": "Record_UreaNitrogen"
          },
          {
            "reference": "Observation/Observation-209439",
            "display": "Record_Creatinine"
          },
          {
            "reference": "Observation/Observation-209440",
            "display": "Record_Calcium"
          },
          {
            "reference": "Observation/Observation-209441",
            "display": "Record_Sodium"
          },
          {
            "reference": "Observation/Observation-209442",
            "display": "Record_Potassium"
          },
          {
            "reference": "Observation/Observation-209443",
            "display": "Record_Chloride"
          },
          {
            "reference": "Observation/Observation-209444",
            "display": "Record_CO2"
          }
        ]
      },
      "request": {
        "method": "PUT",
        "url": "http://localhost:8080/cqf-ruler/baseDstu3/DiagnosticReport/DiagnosticReport-209445"
      }
    },
    {
      "fullUrl": "http://localhost:8080/cqf-ruler/baseDstu3/Observation/Observation-209446",
      "resource": {
        "resourceType": "Observation",
        "id": "Observation-209446",
        "status": "final",
        "code": {
          "coding": [
            {
              "system": "http://loinc.org",
              "code": "2093-3",
              "display": "Total Cholesterol"
            }
          ]
        },
        "subject": {
          "reference": "Patient/Patient-6499",
          "display": "Pauline Shepherd Sweeney"
        },
        "context": {
          "reference": "Encounter/Encounter-966",
          "display": "Wellness Visit"
        },
        "effectivePeriod": {
          "start": "1998-07-10T00:00:00-04:00",
          "end": "1998-07-10T00:00:00-04:00"
        },
        "performer": [
          {
            "reference": "Practitioner/Practitioner-2516",
            "display": "Agnes Tammy Larson MD"
          }
        ],
        "valueQuantity": {
          "value": 128.08601852251184,
          "unit": "mg/dL"
        }
      },
      "request": {
        "method": "PUT",
        "url": "http://localhost:8080/cqf-ruler/baseDstu3/Observation/Observation-209446"
      }
    },
    {
      "fullUrl": "http://localhost:8080/cqf-ruler/baseDstu3/Observation/Observation-209447",
      "resource": {
        "resourceType": "Observation",
        "id": "Observation-209447",
        "status": "final",
        "code": {
          "coding": [
            {
              "system": "http://loinc.org",
              "code": "2571-8",
              "display": "Triglycerides"
            }
          ]
        },
        "subject": {
          "reference": "Patient/Patient-6499",
          "display": "Pauline Shepherd Sweeney"
        },
        "context": {
          "reference": "Encounter/Encounter-966",
          "display": "Wellness Visit"
        },
        "effectivePeriod": {
          "start": "1998-07-10T00:00:00-04:00",
          "end": "1998-07-10T00:00:00-04:00"
        },
        "performer": [
          {
            "reference": "Practitioner/Practitioner-2516",
            "display": "Agnes Tammy Larson MD"
          }
        ],
        "valueQuantity": {
          "value": 56.151441385256156,
          "unit": "mg/dL"
        }
      },
      "request": {
        "method": "PUT",
        "url": "http://localhost:8080/cqf-ruler/baseDstu3/Observation/Observation-209447"
      }
    },
    {
      "fullUrl": "http://localhost:8080/cqf-ruler/baseDstu3/Observation/Observation-209448",
      "resource": {
        "resourceType": "Observation",
        "id": "Observation-209448",
        "status": "final",
        "code": {
          "coding": [
            {
              "system": "http://loinc.org",
              "code": "18262-6",
              "display": "Low Density Lipoprotein Cholesterol"
            }
          ]
        },
        "subject": {
          "reference": "Patient/Patient-6499",
          "display": "Pauline Shepherd Sweeney"
        },
        "context": {
          "reference": "Encounter/Encounter-966",
          "display": "Wellness Visit"
        },
        "effectivePeriod": {
          "start": "1998-07-10T00:00:00-04:00",
          "end": "1998-07-10T00:00:00-04:00"
        },
        "performer": [
          {
            "reference": "Practitioner/Practitioner-2516",
            "display": "Agnes Tammy Larson MD"
          }
        ],
        "valueQuantity": {
          "value": 67.97753970535229,
          "unit": "mg/dL"
        }
      },
      "request": {
        "method": "PUT",
        "url": "http://localhost:8080/cqf-ruler/baseDstu3/Observation/Observation-209448"
      }
    },
    {
      "fullUrl": "http://localhost:8080/cqf-ruler/baseDstu3/Observation/Observation-209449",
      "resource": {
        "resourceType": "Observation",
        "id": "Observation-209449",
        "status": "final",
        "code": {
          "coding": [
            {
              "system": "http://loinc.org",
              "code": "2085-9",
              "display": "High Density Lipoprotein Cholesterol"
            }
          ]
        },
        "subject": {
          "reference": "Patient/Patient-6499",
          "display": "Pauline Shepherd Sweeney"
        },
        "context": {
          "reference": "Encounter/Encounter-966",
          "display": "Wellness Visit"
        },
        "effectivePeriod": {
          "start": "1998-07-10T00:00:00-04:00",
          "end": "1998-07-10T00:00:00-04:00"
        },
        "performer": [
          {
            "reference": "Practitioner/Practitioner-2516",
            "display": "Agnes Tammy Larson MD"
          }
        ],
        "valueQuantity": {
          "value": 48.878190540108314,
          "unit": "mg/dL"
        }
      },
      "request": {
        "method": "PUT",
        "url": "http://localhost:8080/cqf-ruler/baseDstu3/Observation/Observation-209449"
      }
    },
    {
      "fullUrl": "http://localhost:8080/cqf-ruler/baseDstu3/DiagnosticReport/DiagnosticReport-209450",
      "resource": {
        "resourceType": "DiagnosticReport",
        "id": "DiagnosticReport-209450",
        "status": "final",
        "code": {
          "coding": [
            {
              "system": "http://loinc.org",
              "code": "57698-3",
              "display": "Lipid Panel"
            }
          ]
        },
        "subject": {
          "reference": "Patient/Patient-6499",
          "display": "Pauline Shepherd Sweeney"
        },
        "context": {
          "reference": "Encounter/Encounter-966",
          "display": "Wellness Visit"
        },
        "effectivePeriod": {
          "start": "1998-07-10T00:00:00-04:00",
          "end": "1998-07-10T00:00:00-04:00"
        },
        "issued": "1998-07-10T00:00:00.000-04:00",
        "result": [
          {
            "reference": "Observation/Observation-209446",
            "display": "Record_Cholesterol"
          },
          {
            "reference": "Observation/Observation-209447",
            "display": "Record_Triglycerides"
          },
          {
            "reference": "Observation/Observation-209448",
            "display": "Record_LDL"
          },
          {
            "reference": "Observation/Observation-209449",
            "display": "Record_HDL"
          }
        ]
      },
      "request": {
        "method": "PUT",
        "url": "http://localhost:8080/cqf-ruler/baseDstu3/DiagnosticReport/DiagnosticReport-209450"
      }
    },
    {
      "fullUrl": "http://localhost:8080/cqf-ruler/baseDstu3/Observation/Observation-209452",
      "resource": {
        "resourceType": "Observation",
        "id": "Observation-209452",
        "status": "final",
        "code": {
          "coding": [
            {
              "system": "http://loinc.org",
              "code": "8302-2",
              "display": "Height"
            }
          ]
        },
        "subject": {
          "reference": "Patient/Patient-6499",
          "display": "Pauline Shepherd Sweeney"
        },
        "context": {
          "reference": "Encounter/Encounter-966",
          "display": "Wellness Visit"
        },
        "effectiveDateTime": "1998-07-10T00:00:00-04:00",
        "performer": [
          {
            "reference": "Practitioner/Practitioner-2516",
            "display": "Agnes Tammy Larson MD"
          }
        ],
        "valueQuantity": {
          "value": 167.7,
          "unit": "cm"
        }
      },
      "request": {
        "method": "PUT",
        "url": "http://localhost:8080/cqf-ruler/baseDstu3/Observation/Observation-209452"
      }
    },
    {
      "fullUrl": "http://localhost:8080/cqf-ruler/baseDstu3/Observation/Observation-209453",
      "resource": {
        "resourceType": "Observation",
        "id": "Observation-209453",
        "status": "final",
        "code": {
          "coding": [
            {
              "system": "http://loinc.org",
              "code": "29463-7",
              "display": "Weight"
            }
          ]
        },
        "subject": {
          "reference": "Patient/Patient-6499",
          "display": "Pauline Shepherd Sweeney"
        },
        "context": {
          "reference": "Encounter/Encounter-966",
          "display": "Wellness Visit"
        },
        "effectiveDateTime": "1998-07-10T00:00:00-04:00",
        "performer": [
          {
            "reference": "Practitioner/Practitioner-2516",
            "display": "Agnes Tammy Larson MD"
          }
        ],
        "valueQuantity": {
          "value": 83.08814871427872,
          "unit": "kg"
        }
      },
      "request": {
        "method": "PUT",
        "url": "http://localhost:8080/cqf-ruler/baseDstu3/Observation/Observation-209453"
      }
    },
    {
      "fullUrl": "http://localhost:8080/cqf-ruler/baseDstu3/Observation/Observation-209454",
      "resource": {
        "resourceType": "Observation",
        "id": "Observation-209454",
        "status": "final",
        "code": {
          "coding": [
            {
              "system": "http://loinc.org",
              "code": "39156-5",
              "display": "BMI"
            }
          ]
        },
        "subject": {
          "reference": "Patient/Patient-6499",
          "display": "Pauline Shepherd Sweeney"
        },
        "context": {
          "reference": "Encounter/Encounter-966",
          "display": "Wellness Visit"
        },
        "effectiveDateTime": "1998-07-10T00:00:00-04:00",
        "performer": [
          {
            "reference": "Practitioner/Practitioner-2516",
            "display": "Agnes Tammy Larson MD"
          }
        ],
        "valueQuantity": {
          "value": 29.544249166537323,
          "unit": "kg/m2"
        }
      },
      "request": {
        "method": "PUT",
        "url": "http://localhost:8080/cqf-ruler/baseDstu3/Observation/Observation-209454"
      }
    },
    {
      "fullUrl": "http://localhost:8080/cqf-ruler/baseDstu3/Observation/Observation-209455",
      "resource": {
        "resourceType": "Observation",
        "id": "Observation-209455",
        "status": "final",
        "code": {
          "coding": [
            {
              "system": "http://loinc.org",
              "code": "8310-5",
              "display": "Temperature"
            }
          ]
        },
        "subject": {
          "reference": "Patient/Patient-6499",
          "display": "Pauline Shepherd Sweeney"
        },
        "context": {
          "reference": "Encounter/Encounter-966",
          "display": "Wellness Visit"
        },
        "effectiveDateTime": "1998-07-10T00:00:00-04:00",
        "performer": [
          {
            "reference": "Practitioner/Practitioner-2516",
            "display": "Agnes Tammy Larson MD"
          }
        ],
        "valueQuantity": {
          "value": 37.0,
          "unit": "C"
        }
      },
      "request": {
        "method": "PUT",
        "url": "http://localhost:8080/cqf-ruler/baseDstu3/Observation/Observation-209455"
      }
    },
    {
      "fullUrl": "http://localhost:8080/cqf-ruler/baseDstu3/Observation/Observation-209456",
      "resource": {
        "resourceType": "Observation",
        "id": "Observation-209456",
        "status": "final",
        "code": {
          "coding": [
            {
              "system": "http://loinc.org",
              "code": "8459-0",
              "display": "Systolic Blood Pressure"
            }
          ]
        },
        "subject": {
          "reference": "Patient/Patient-6499",
          "display": "Pauline Shepherd Sweeney"
        },
        "context": {
          "reference": "Encounter/Encounter-966",
          "display": "Wellness Visit"
        },
        "effectiveDateTime": "1998-07-10T00:00:00-04:00",
        "performer": [
          {
            "reference": "Practitioner/Practitioner-2516",
            "display": "Agnes Tammy Larson MD"
          }
        ],
        "valueQuantity": {
          "value": 103.01521072441315,
          "unit": "mmHg"
        }
      },
      "request": {
        "method": "PUT",
        "url": "http://localhost:8080/cqf-ruler/baseDstu3/Observation/Observation-209456"
      }
    },
    {
      "fullUrl": "http://localhost:8080/cqf-ruler/baseDstu3/Observation/Observation-209457",
      "resource": {
        "resourceType": "Observation",
        "id": "Observation-209457",
        "status": "final",
        "code": {
          "coding": [
            {
              "system": "http://loinc.org",
              "code": "8453-3",
              "display": "Diastolic Blood Pressure"
            }
          ]
        },
        "subject": {
          "reference": "Patient/Patient-6499",
          "display": "Pauline Shepherd Sweeney"
        },
        "context": {
          "reference": "Encounter/Encounter-966",
          "display": "Wellness Visit"
        },
        "effectiveDateTime": "1998-07-10T00:00:00-04:00",
        "performer": [
          {
            "reference": "Practitioner/Practitioner-2516",
            "display": "Agnes Tammy Larson MD"
          }
        ],
        "valueQuantity": {
          "value": 114.37809269118424,
          "unit": "mmHg"
        }
      },
      "request": {
        "method": "PUT",
        "url": "http://localhost:8080/cqf-ruler/baseDstu3/Observation/Observation-209457"
      }
    },
    {
      "fullUrl": "http://localhost:8080/cqf-ruler/baseDstu3/DiagnosticReport/DiagnosticReport-209451",
      "resource": {
        "resourceType": "DiagnosticReport",
        "id": "DiagnosticReport-209451",
        "status": "final",
        "code": {
          "coding": [
            {
              "system": "http://loinc.org",
              "code": "8716-3",
              "display": "Vital Signs Panel"
            }
          ]
        },
        "subject": {
          "reference": "Patient/Patient-6499",
          "display": "Pauline Shepherd Sweeney"
        },
        "context": {
          "reference": "Encounter/Encounter-966",
          "display": "Wellness Visit"
        },
        "effectivePeriod": {
          "start": "1998-07-10T00:00:00-04:00",
          "end": "1998-07-10T00:00:00-04:00"
        },
        "issued": "1998-07-10T00:00:00.000-04:00",
        "result": [
          {
            "reference": "Observation/Observation-209452",
            "display": "Height"
          },
          {
            "reference": "Observation/Observation-209453",
            "display": "Weight"
          },
          {
            "reference": "Observation/Observation-209454",
            "display": "BMI"
          },
          {
            "reference": "Observation/Observation-209455",
            "display": "Temperature"
          },
          {
            "reference": "Observation/Observation-209456",
            "display": "Systolic Blood Pressure"
          },
          {
            "reference": "Observation/Observation-209457",
            "display": "Diastolic Blood Pressure"
          }
        ]
      },
      "request": {
        "method": "PUT",
        "url": "http://localhost:8080/cqf-ruler/baseDstu3/DiagnosticReport/DiagnosticReport-209451"
      }
    }
  ]
}