{
  "resourceType": "Bundle",
  "id": "Pauline-Shepherd-Sweeney-6499-Encounter-756",
  "type": "transaction",
  "entry": [
    {
      "fullUrl": "http://localhost:8080/cqf-ruler/baseDstu3/Encounter/Encounter-756",
      "resource": {
        "resourceType": "Encounter",
        "id": "Encounter-756",
        "meta": {
          "profile": [
            "http://hl7.org/fhir/us/hedis/StructureDefinition/hedis-encounter"
          ]
        },
        "status": "finished",
        "class": {
          "system": "http://hl7.org/fhir/encounter-class",
          "code": "outpatient",
          "display": "Outpatient"
        },
        "type": [
          {
            "coding": [
              {
                "system": "http://snomed.info/sct",
                "code": "185349003",
                "display": "Wellness Visit"
              }
            ]
          }
        ],
        "subject": {
          "reference": "Patient/Patient-6499",
          "display": "Pauline Shepherd Sweeney"
        },
        "participant": [
          {
            "period": {
              "start": "1996-07-26T00:00:00-04:00",
              "end": "1996-07-26T00:00:00-04:00"
            },
            "individual": {
              "reference": "Practitioner/Practitioner-2516",
              "display": "Agnes Tammy Larson MD"
            }
          }
        ],
        "period": {
          "start": "1996-07-26T00:00:00-04:00",
          "end": "1996-07-26T00:00:00-04:00"
        },
        "location": [
          {
            "location": {
              "reference": "Location/Location-1101",
              "display": "McKinley Health Center"
            }
          }
        ],
        "serviceProvider": {
          "reference": "Organization/Organization-1101",
          "display": "McKinley Health Center"
        }
      },
      "request": {
        "method": "PUT",
        "url": "http://localhost:8080/cqf-ruler/baseDstu3/Encounter/Encounter-756"
      }
    },
    {
      "fullUrl": "http://localhost:8080/cqf-ruler/baseDstu3/Immunization/Immunization-126359",
      "resource": {
        "resourceType": "Immunization",
        "id": "Immunization-126359",
        "status": "completed",
        "notGiven": false,
        "vaccineCode": {
          "coding": [
            {
              "system": "http://hl7.org/fhir/sid/cvx",
              "code": "140",
              "display": "Influenza, seasonal, injectable, preservative free"
            }
          ]
        },
        "patient": {
          "reference": "Patient/Patient-6499",
          "display": "Pauline Shepherd Sweeney"
        },
        "date": "1996-07-26T00:00:00-04:00",
        "primarySource": true,
        "location": {
          "reference": "Location/Location-1101",
          "display": "McKinley Health Center"
        },
        "practitioner": [
          {
            "actor": {
              "reference": "Practitioner/Practitioner-2516",
              "display": "Agnes Tammy Larson MD"
            }
          }
        ]
      },
      "request": {
        "method": "PUT",
        "url": "http://localhost:8080/cqf-ruler/baseDstu3/Immunization/Immunization-126359"
      }
    },
    {
      "fullUrl": "http://localhost:8080/cqf-ruler/baseDstu3/Procedure/Procedure-167396",
      "resource": {
        "resourceType": "Procedure",
        "id": "Procedure-167396",
        "meta": {
          "profile": [
            "http://hl7.org/fhir/us/hedis/StructureDefinition/hedis-procedure"
          ]
        },
        "status": "completed",
        "code": {
          "coding": [
            {
              "system": "http://snomed.info/sct",
              "code": "713107002",
              "display": "Screening for alcohol abuse (procedure)"
            }
          ]
        },
        "subject": {
          "reference": "Patient/Patient-6499",
          "display": "Pauline Shepherd Sweeney"
        },
        "context": {
          "reference": "Encounter/Encounter-756",
          "display": "Wellness Visit"
        },
        "performedPeriod": {
          "start": "1996-07-26T00:00:00-04:00",
          "end": "1996-07-26T00:00:00-04:00"
        },
        "performer": [
          {
            "actor": {
              "reference": "Practitioner/Practitioner-2516",
              "display": "Agnes Tammy Larson MD"
            }
          }
        ],
        "location": {
          "reference": "Location/Location-1101",
          "display": "McKinley Health Center"
        }
      },
      "request": {
        "method": "PUT",
        "url": "http://localhost:8080/cqf-ruler/baseDstu3/Procedure/Procedure-167396"
      }
    },
    {
      "fullUrl": "http://localhost:8080/cqf-ruler/baseDstu3/Observation/Observation-167397",
      "resource": {
        "resourceType": "Observation",
        "id": "Observation-167397",
        "meta": {
          "profile": [
            "http://hl7.org/fhir/us/hedis/StructureDefinition/hedis-observation"
          ]
        },
        "status": "final",
        "code": {
          "coding": [
            {
              "system": "http://cqframework.info/codesystem/placeholder",
              "code": "00005",
              "display": "Five or more drinks per day"
            }
          ]
        },
        "subject": {
          "reference": "Patient/Patient-6499",
          "display": "Pauline Shepherd Sweeney"
        },
        "context": {
          "reference": "Encounter/Encounter-756",
          "display": "Wellness Visit"
        },
        "effectiveDateTime": "1996-07-26T00:00:00-04:00",
        "performer": [
          {
            "reference": "Practitioner/Practitioner-2516",
            "display": "Agnes Tammy Larson MD"
          }
        ],
        "valueQuantity": {
          "value": 10.0,
          "unit": "score"
        }
      },
      "request": {
        "method": "PUT",
        "url": "http://localhost:8080/cqf-ruler/baseDstu3/Observation/Observation-167397"
      }
    },
    {
      "fullUrl": "http://localhost:8080/cqf-ruler/baseDstu3/Observation/Observation-167398",
      "resource": {
        "resourceType": "Observation",
        "id": "Observation-167398",
        "meta": {
          "profile": [
            "http://hl7.org/fhir/us/hedis/StructureDefinition/hedis-observation"
          ]
        },
        "status": "final",
        "code": {
          "coding": [
            {
              "system": "http://loinc.org",
              "code": "75626-2",
              "display": "AUDIT-C Total Score (in points)"
            }
          ]
        },
        "subject": {
          "reference": "Patient/Patient-6499",
          "display": "Pauline Shepherd Sweeney"
        },
        "context": {
          "reference": "Encounter/Encounter-756",
          "display": "Wellness Visit"
        },
        "effectiveDateTime": "1996-07-26T00:00:00-04:00",
        "performer": [
          {
            "reference": "Practitioner/Practitioner-2516",
            "display": "Agnes Tammy Larson MD"
          }
        ],
        "valueQuantity": {
          "value": 9.0,
          "unit": "score"
        }
      },
      "request": {
        "method": "PUT",
        "url": "http://localhost:8080/cqf-ruler/baseDstu3/Observation/Observation-167398"
      }
    },
    {
      "fullUrl": "http://localhost:8080/cqf-ruler/baseDstu3/DiagnosticReport/DiagnosticReport-167399",
      "resource": {
        "resourceType": "DiagnosticReport",
        "id": "DiagnosticReport-167399",
        "meta": {
          "profile": [
            "http://hl7.org/fhir/us/hedis/StructureDefinition/hedis-diagnosticreport"
          ]
        },
        "status": "final",
        "category": {
          "coding": [
            {
              "system": "http://hl7.org/fhir/ValueSet/diagnostic-service-sections",
              "code": "OTH",
              "display": "Other"
            }
          ]
        },
        "code": {
          "coding": [
            {
              "system": "http://snomed.info/sct",
              "code": "191475009",
              "display": "Chronic alcoholic brain syndrome (disorder)"
            }
          ]
        },
        "subject": {
          "reference": "Patient/Patient-6499",
          "display": "Pauline Shepherd Sweeney"
        },
        "context": {
          "reference": "Encounter/Encounter-756",
          "display": "Wellness Visit"
        },
        "effectivePeriod": {
          "start": "1996-07-26T00:00:00-04:00",
          "end": "1996-07-26T00:00:00-04:00"
        },
        "issued": "1996-07-26T00:00:00.000-04:00"
      },
      "request": {
        "method": "PUT",
        "url": "http://localhost:8080/cqf-ruler/baseDstu3/DiagnosticReport/DiagnosticReport-167399"
      }
    },
    {
      "fullUrl": "http://localhost:8080/cqf-ruler/baseDstu3/Observation/Observation-167400",
      "resource": {
        "resourceType": "Observation",
        "id": "Observation-167400",
        "meta": {
          "profile": [
            "http://hl7.org/fhir/us/hedis/StructureDefinition/hedis-observation"
          ]
        },
        "status": "final",
        "code": {
          "coding": [
            {
              "system": "http://loinc.org",
              "code": "8480-6",
              "display": "Systolic blood pressure"
            }
          ]
        },
        "subject": {
          "reference": "Patient/Patient-6499",
          "display": "Pauline Shepherd Sweeney"
        },
        "context": {
          "reference": "Encounter/Encounter-756",
          "display": "Wellness Visit"
        },
        "effectiveDateTime": "1996-07-26T00:00:00-04:00",
        "performer": [
          {
            "reference": "Practitioner/Practitioner-2516",
            "display": "Agnes Tammy Larson MD"
          }
        ],
        "valueQuantity": {
          "value": 155.77238713903142,
          "unit": "mmHg"
        }
      },
      "request": {
        "method": "PUT",
        "url": "http://localhost:8080/cqf-ruler/baseDstu3/Observation/Observation-167400"
      }
    },
    {
      "fullUrl": "http://localhost:8080/cqf-ruler/baseDstu3/Observation/Observation-167401",
      "resource": {
        "resourceType": "Observation",
        "id": "Observation-167401",
        "meta": {
          "profile": [
            "http://hl7.org/fhir/us/hedis/StructureDefinition/hedis-observation"
          ]
        },
        "status": "final",
        "code": {
          "coding": [
            {
              "system": "http://loinc.org",
              "code": "8462-4",
              "display": "Diastolic blood pressure"
            }
          ]
        },
        "subject": {
          "reference": "Patient/Patient-6499",
          "display": "Pauline Shepherd Sweeney"
        },
        "context": {
          "reference": "Encounter/Encounter-756",
          "display": "Wellness Visit"
        },
        "effectiveDateTime": "1996-07-26T00:00:00-04:00",
        "performer": [
          {
            "reference": "Practitioner/Practitioner-2516",
            "display": "Agnes Tammy Larson MD"
          }
        ],
        "valueQuantity": {
          "value": 117.28813079207777,
          "unit": "mmHg"
        }
      },
      "request": {
        "method": "PUT",
        "url": "http://localhost:8080/cqf-ruler/baseDstu3/Observation/Observation-167401"
      }
    },
    {
      "fullUrl": "http://localhost:8080/cqf-ruler/baseDstu3/Condition/Condition-167402",
      "resource": {
        "resourceType": "Condition",
        "id": "Condition-167402",
        "meta": {
          "profile": [
            "http://hl7.org/fhir/us/hedis/StructureDefinition/hedis-condition"
          ]
        },
        "clinicalStatus": "active",
        "verificationStatus": "confirmed",
        "code": {
          "coding": [
            {
              "system": "TBD",
              "code": "TBD",
              "display": "TBD"
            }
          ]
        },
        "subject": {
          "reference": "Patient/Patient-6499",
          "display": "Pauline Shepherd Sweeney"
        },
        "context": {
          "reference": "Encounter/Encounter-756",
          "display": "Wellness Visit"
        },
        "onsetDateTime": "1996-07-26T00:00:00-04:00",
        "assertedDate": "1996-07-26T00:00:00-04:00",
        "asserter": {
          "reference": "Practitioner/Practitioner-2516",
          "display": "Agnes Tammy Larson MD"
        }
      },
      "request": {
        "method": "PUT",
        "url": "http://localhost:8080/cqf-ruler/baseDstu3/Condition/Condition-167402"
      }
    },
    {
      "fullUrl": "http://localhost:8080/cqf-ruler/baseDstu3/Procedure/Procedure-167403",
      "resource": {
        "resourceType": "Procedure",
        "id": "Procedure-167403",
        "meta": {
          "profile": [
            "http://hl7.org/fhir/us/hedis/StructureDefinition/hedis-procedure"
          ]
        },
        "status": "completed",
        "code": {
          "coding": [
            {
              "system": "http://www.ama-assn.org/go/cpt",
              "code": "87625",
              "display": "Infectious agent detection by nucleic acid (DNA or RNA); Human Papillomavirus (HPV), types 16 and 18 only, includes type 45, if performed"
            }
          ]
        },
        "subject": {
          "reference": "Patient/Patient-6499",
          "display": "Pauline Shepherd Sweeney"
        },
        "context": {
          "reference": "Encounter/Encounter-756",
          "display": "Wellness Visit"
        },
        "performedPeriod": {
          "start": "1996-07-26T00:00:00-04:00",
          "end": "1996-07-26T00:00:00-04:00"
        },
        "performer": [
          {
            "actor": {
              "reference": "Practitioner/Practitioner-2516",
              "display": "Agnes Tammy Larson MD"
            }
          }
        ],
        "location": {
          "reference": "Location/Location-1101",
          "display": "McKinley Health Center"
        }
      },
      "request": {
        "method": "PUT",
        "url": "http://localhost:8080/cqf-ruler/baseDstu3/Procedure/Procedure-167403"
      }
    },
    {
      "fullUrl": "http://localhost:8080/cqf-ruler/baseDstu3/Observation/Observation-167404",
      "resource": {
        "resourceType": "Observation",
        "id": "Observation-167404",
        "meta": {
          "profile": [
            "http://hl7.org/fhir/us/hedis/StructureDefinition/hedis-observation"
          ]
        },
        "status": "final",
        "code": {
          "coding": [
            {
              "system": "http://snomed.info/sct",
              "code": "289829007",
              "display": "Normal uterine cervix (finding)"
            }
          ]
        },
        "subject": {
          "reference": "Patient/Patient-6499",
          "display": "Pauline Shepherd Sweeney"
        },
        "context": {
          "reference": "Encounter/Encounter-756",
          "display": "Wellness Visit"
        },
        "effectiveDateTime": "1996-07-26T00:00:00-04:00",
        "performer": [
          {
            "reference": "Practitioner/Practitioner-2516",
            "display": "Agnes Tammy Larson MD"
          }
        ],
        "valueString": "NEGATIVE"
      },
      "request": {
        "method": "PUT",
        "url": "http://localhost:8080/cqf-ruler/baseDstu3/Observation/Observation-167404"
      }
    },
    {
      "fullUrl": "http://localhost:8080/cqf-ruler/baseDstu3/DiagnosticReport/DiagnosticReport-167405",
      "resource": {
        "resourceType": "DiagnosticReport",
        "id": "DiagnosticReport-167405",
        "meta": {
          "profile": [
            "http://hl7.org/fhir/us/hedis/StructureDefinition/hedis-diagnosticreport"
          ]
        },
        "status": "final",
        "category": {
          "coding": [
            {
              "system": "http://hl7.org/fhir/ValueSet/diagnostic-service-sections",
              "code": "CP",
              "display": "Cytopathology"
            }
          ]
        },
        "code": {
          "coding": [
            {
              "system": "http://loinc.org",
              "code": "18500-9",
              "display": "Microscopic observation [Identifier] in Cervix by Cyto stain.thin prep"
            }
          ]
        },
        "subject": {
          "reference": "Patient/Patient-6499",
          "display": "Pauline Shepherd Sweeney"
        },
        "context": {
          "reference": "Encounter/Encounter-756",
          "display": "Wellness Visit"
        },
        "effectivePeriod": {
          "start": "1996-07-26T00:00:00-04:00",
          "end": "1996-07-26T00:00:00-04:00"
        },
        "issued": "1996-07-26T00:00:00.000-04:00",
        "result": [
          {
            "reference": "Observation/Observation-167404",
            "display": "No_Cancer_Detected"
          }
        ]
      },
      "request": {
        "method": "PUT",
        "url": "http://localhost:8080/cqf-ruler/baseDstu3/DiagnosticReport/DiagnosticReport-167405"
      }
    },
    {
      "fullUrl": "http://localhost:8080/cqf-ruler/baseDstu3/Procedure/Procedure-167406",
      "resource": {
        "resourceType": "Procedure",
        "id": "Procedure-167406",
        "meta": {
          "profile": [
            "http://hl7.org/fhir/us/hedis/StructureDefinition/hedis-procedure"
          ]
        },
        "status": "completed",
        "code": {
          "coding": [
            {
              "system": "http://www.ama-assn.org/go/cpt",
              "code": "82274",
              "display": "Blood, occult, by fecal hemoglobin determination by immunoassay, qualitative, feces, 1-3 simultaneous determinations"
            }
          ]
        },
        "subject": {
          "reference": "Patient/Patient-6499",
          "display": "Pauline Shepherd Sweeney"
        },
        "context": {
          "reference": "Encounter/Encounter-756",
          "display": "Wellness Visit"
        },
        "performedPeriod": {
          "start": "1996-07-26T00:00:00-04:00",
          "end": "1996-07-26T00:00:00-04:00"
        },
        "performer": [
          {
            "actor": {
              "reference": "Practitioner/Practitioner-2516",
              "display": "Agnes Tammy Larson MD"
            }
          }
        ],
        "location": {
          "reference": "Location/Location-1101",
          "display": "McKinley Health Center"
        }
      },
      "request": {
        "method": "PUT",
        "url": "http://localhost:8080/cqf-ruler/baseDstu3/Procedure/Procedure-167406"
      }
    },
    {
      "fullUrl": "http://localhost:8080/cqf-ruler/baseDstu3/Observation/Observation-167407",
      "resource": {
        "resourceType": "Observation",
        "id": "Observation-167407",
        "meta": {
          "profile": [
            "http://hl7.org/fhir/us/hedis/StructureDefinition/hedis-observation"
          ]
        },
        "status": "final",
        "code": {
          "coding": [
            {
              "system": "http://www.ama-assn.org/go/cpt",
              "code": "82270",
              "display": "Blood, occult, by peroxidase activity (eg, guaiac), qualitative; feces, consecutive collected specimens with single determination, for colorectal neoplasm screening (ie, patient was provided 3 cards or single triple card for consecutive collection)"
            }
          ]
        },
        "subject": {
          "reference": "Patient/Patient-6499",
          "display": "Pauline Shepherd Sweeney"
        },
        "context": {
          "reference": "Encounter/Encounter-756",
          "display": "Wellness Visit"
        },
        "effectiveDateTime": "1996-07-26T00:00:00-04:00",
        "performer": [
          {
            "reference": "Practitioner/Practitioner-2516",
            "display": "Agnes Tammy Larson MD"
          }
        ],
        "valueString": "NEGATIVE"
      },
      "request": {
        "method": "PUT",
        "url": "http://localhost:8080/cqf-ruler/baseDstu3/Observation/Observation-167407"
      }
    },
    {
      "fullUrl": "http://localhost:8080/cqf-ruler/baseDstu3/Observation/Observation-167408",
      "resource": {
        "resourceType": "Observation",
        "id": "Observation-167408",
        "meta": {
          "profile": [
            "http://hl7.org/fhir/us/hedis/StructureDefinition/hedis-observation"
          ]
        },
        "status": "final",
        "code": {
          "coding": [
            {
              "system": "http://loinc.org",
              "code": "8302-2",
              "display": "Body Height"
            }
          ]
        },
        "subject": {
          "reference": "Patient/Patient-6499",
          "display": "Pauline Shepherd Sweeney"
        },
        "context": {
          "reference": "Encounter/Encounter-756",
          "display": "Wellness Visit"
        },
        "effectiveDateTime": "1996-07-26T00:00:00-04:00",
        "performer": [
          {
            "reference": "Practitioner/Practitioner-2516",
            "display": "Agnes Tammy Larson MD"
          }
        ],
        "valueQuantity": {
          "value": 167.7,
          "unit": "cm"
        }
      },
      "request": {
        "method": "PUT",
        "url": "http://localhost:8080/cqf-ruler/baseDstu3/Observation/Observation-167408"
      }
    },
    {
      "fullUrl": "http://localhost:8080/cqf-ruler/baseDstu3/Observation/Observation-167409",
      "resource": {
        "resourceType": "Observation",
        "id": "Observation-167409",
        "meta": {
          "profile": [
            "http://hl7.org/fhir/us/hedis/StructureDefinition/hedis-observation"
          ]
        },
        "status": "final",
        "code": {
          "coding": [
            {
              "system": "http://loinc.org",
              "code": "29463-7",
              "display": "Body Weight"
            }
          ]
        },
        "subject": {
          "reference": "Patient/Patient-6499",
          "display": "Pauline Shepherd Sweeney"
        },
        "context": {
          "reference": "Encounter/Encounter-756",
          "display": "Wellness Visit"
        },
        "effectiveDateTime": "1996-07-26T00:00:00-04:00",
        "performer": [
          {
            "reference": "Practitioner/Practitioner-2516",
            "display": "Agnes Tammy Larson MD"
          }
        ],
        "valueQuantity": {
          "value": 86.0410994612666,
          "unit": "kg"
        }
      },
      "request": {
        "method": "PUT",
        "url": "http://localhost:8080/cqf-ruler/baseDstu3/Observation/Observation-167409"
      }
    },
    {
      "fullUrl": "http://localhost:8080/cqf-ruler/baseDstu3/Observation/Observation-167410",
      "resource": {
        "resourceType": "Observation",
        "id": "Observation-167410",
        "meta": {
          "profile": [
            "http://hl7.org/fhir/us/hedis/StructureDefinition/hedis-observation"
          ]
        },
        "status": "final",
        "code": {
          "coding": [
            {
              "system": "http://loinc.org",
              "code": "39156-5",
              "display": "Body Mass Index"
            }
          ]
        },
        "subject": {
          "reference": "Patient/Patient-6499",
          "display": "Pauline Shepherd Sweeney"
        },
        "context": {
          "reference": "Encounter/Encounter-756",
          "display": "Wellness Visit"
        },
        "effectiveDateTime": "1996-07-26T00:00:00-04:00",
        "performer": [
          {
            "reference": "Practitioner/Practitioner-2516",
            "display": "Agnes Tammy Larson MD"
          }
        ],
        "valueQuantity": {
          "value": 30.594251050025306,
          "unit": "kg/m2"
        }
      },
      "request": {
        "method": "PUT",
        "url": "http://localhost:8080/cqf-ruler/baseDstu3/Observation/Observation-167410"
      }
    },
    {
      "fullUrl": "http://localhost:8080/cqf-ruler/baseDstu3/Observation/Observation-167413",
      "resource": {
        "resourceType": "Observation",
        "id": "Observation-167413",
        "meta": {
          "profile": [
            "http://hl7.org/fhir/us/hedis/StructureDefinition/hedis-observation"
          ]
        },
        "status": "final",
        "code": {
          "coding": [
            {
              "system": "http://loinc.org",
              "code": "55284-4",
              "display": "Blood Pressure"
            }
          ]
        },
        "subject": {
          "reference": "Patient/Patient-6499",
          "display": "Pauline Shepherd Sweeney"
        },
        "context": {
          "reference": "Encounter/Encounter-756",
          "display": "Wellness Visit"
        },
        "effectiveDateTime": "1996-07-26T00:00:00-04:00",
        "valueQuantity": {
          "value": 117.28813079207777,
          "unit": "mmHg"
        },
        "component": [
          {
            "code": {
              "coding": [
                {
                  "system": "http://loinc.org",
                  "code": "8480-6",
                  "display": "Systolic Blood Pressure"
                }
              ]
            }
          },
          {
            "code": {
              "coding": [
                {
                  "system": "http://loinc.org",
                  "code": "8462-4",
                  "display": "Diastolic Blood Pressure"
                }
              ]
            }
          }
        ]
      },
      "request": {
        "method": "PUT",
        "url": "http://localhost:8080/cqf-ruler/baseDstu3/Observation/Observation-167413"
      }
    },
    {
      "fullUrl": "http://localhost:8080/cqf-ruler/baseDstu3/Observation/Observation-167414",
      "resource": {
        "resourceType": "Observation",
        "id": "Observation-167414",
        "meta": {
          "profile": [
            "http://hl7.org/fhir/us/hedis/StructureDefinition/hedis-observation"
          ]
        },
        "status": "final",
        "code": {
          "coding": [
            {
              "system": "http://loinc.org",
              "code": "4548-4",
              "display": "Hemoglobin A1c/Hemoglobin.total in Blood"
            }
          ]
        },
        "subject": {
          "reference": "Patient/Patient-6499",
          "display": "Pauline Shepherd Sweeney"
        },
        "context": {
          "reference": "Encounter/Encounter-756",
          "display": "Wellness Visit"
        },
        "effectiveDateTime": "1996-07-26T00:00:00-04:00",
        "performer": [
          {
            "reference": "Practitioner/Practitioner-2516",
            "display": "Agnes Tammy Larson MD"
          }
        ],
        "valueQuantity": {
          "value": 5.213270960664116,
          "unit": "%"
        }
      },
      "request": {
        "method": "PUT",
        "url": "http://localhost:8080/cqf-ruler/baseDstu3/Observation/Observation-167414"
      }
    },
    {
      "fullUrl": "http://localhost:8080/cqf-ruler/baseDstu3/Observation/Observation-167415",
      "resource": {
        "resourceType": "Observation",
        "id": "Observation-167415",
        "meta": {
          "profile": [
            "http://hl7.org/fhir/us/hedis/StructureDefinition/hedis-observation"
          ]
        },
        "status": "final",
        "code": {
          "coding": [
            {
              "system": "http://loinc.org",
              "code": "2339-0",
              "display": "Glucose"
            }
          ]
        },
        "subject": {
          "reference": "Patient/Patient-6499",
          "display": "Pauline Shepherd Sweeney"
        },
        "context": {
          "reference": "Encounter/Encounter-756",
          "display": "Wellness Visit"
        },
        "effectiveDateTime": "1996-07-26T00:00:00-04:00",
        "performer": [
          {
            "reference": "Practitioner/Practitioner-2516",
            "display": "Agnes Tammy Larson MD"
          }
        ],
        "valueQuantity": {
          "value": 71.08246324976007,
          "unit": "mg/dL"
        }
      },
      "request": {
        "method": "PUT",
        "url": "http://localhost:8080/cqf-ruler/baseDstu3/Observation/Observation-167415"
      }
    },
    {
      "fullUrl": "http://localhost:8080/cqf-ruler/baseDstu3/Observation/Observation-167416",
      "resource": {
        "resourceType": "Observation",
        "id": "Observation-167416",
        "meta": {
          "profile": [
            "http://hl7.org/fhir/us/hedis/StructureDefinition/hedis-observation"
          ]
        },
        "status": "final",
        "code": {
          "coding": [
            {
              "system": "http://loinc.org",
              "code": "6299-2",
              "display": "Urea Nitrogen"
            }
          ]
        },
        "subject": {
          "reference": "Patient/Patient-6499",
          "display": "Pauline Shepherd Sweeney"
        },
        "context": {
          "reference": "Encounter/Encounter-756",
          "display": "Wellness Visit"
        },
        "effectiveDateTime": "1996-07-26T00:00:00-04:00",
        "performer": [
          {
            "reference": "Practitioner/Practitioner-2516",
            "display": "Agnes Tammy Larson MD"
          }
        ],
        "valueQuantity": {
          "value": 17.637767030585913,
          "unit": "mg/dL"
        }
      },
      "request": {
        "method": "PUT",
        "url": "http://localhost:8080/cqf-ruler/baseDstu3/Observation/Observation-167416"
      }
    },
    {
      "fullUrl": "http://localhost:8080/cqf-ruler/baseDstu3/Observation/Observation-167417",
      "resource": {
        "resourceType": "Observation",
        "id": "Observation-167417",
        "meta": {
          "profile": [
            "http://hl7.org/fhir/us/hedis/StructureDefinition/hedis-observation"
          ]
        },
        "status": "final",
        "code": {
          "coding": [
            {
              "system": "http://loinc.org",
              "code": "38483-4",
              "display": "Creatinine"
            }
          ]
        },
        "subject": {
          "reference": "Patient/Patient-6499",
          "display": "Pauline Shepherd Sweeney"
        },
        "context": {
          "reference": "Encounter/Encounter-756",
          "display": "Wellness Visit"
        },
        "effectiveDateTime": "1996-07-26T00:00:00-04:00",
        "performer": [
          {
            "reference": "Practitioner/Practitioner-2516",
            "display": "Agnes Tammy Larson MD"
          }
        ],
        "valueQuantity": {
          "value": 1.5032382535863673,
          "unit": "mg/dL"
        }
      },
      "request": {
        "method": "PUT",
        "url": "http://localhost:8080/cqf-ruler/baseDstu3/Observation/Observation-167417"
      }
    },
    {
      "fullUrl": "http://localhost:8080/cqf-ruler/baseDstu3/Observation/Observation-167418",
      "resource": {
        "resourceType": "Observation",
        "id": "Observation-167418",
        "meta": {
          "profile": [
            "http://hl7.org/fhir/us/hedis/StructureDefinition/hedis-observation"
          ]
        },
        "status": "final",
        "code": {
          "coding": [
            {
              "system": "http://loinc.org",
              "code": "49765-1",
              "display": "Calcium"
            }
          ]
        },
        "subject": {
          "reference": "Patient/Patient-6499",
          "display": "Pauline Shepherd Sweeney"
        },
        "context": {
          "reference": "Encounter/Encounter-756",
          "display": "Wellness Visit"
        },
        "effectiveDateTime": "1996-07-26T00:00:00-04:00",
        "performer": [
          {
            "reference": "Practitioner/Practitioner-2516",
            "display": "Agnes Tammy Larson MD"
          }
        ],
        "valueQuantity": {
          "value": 2.3142524734223247,
          "unit": "mmol/L"
        }
      },
      "request": {
        "method": "PUT",
        "url": "http://localhost:8080/cqf-ruler/baseDstu3/Observation/Observation-167418"
      }
    },
    {
      "fullUrl": "http://localhost:8080/cqf-ruler/baseDstu3/Observation/Observation-167419",
      "resource": {
        "resourceType": "Observation",
        "id": "Observation-167419",
        "meta": {
          "profile": [
            "http://hl7.org/fhir/us/hedis/StructureDefinition/hedis-observation"
          ]
        },
        "status": "final",
        "code": {
          "coding": [
            {
              "system": "http://loinc.org",
              "code": "2947-0",
              "display": "Sodium"
            }
          ]
        },
        "subject": {
          "reference": "Patient/Patient-6499",
          "display": "Pauline Shepherd Sweeney"
        },
        "context": {
          "reference": "Encounter/Encounter-756",
          "display": "Wellness Visit"
        },
        "effectiveDateTime": "1996-07-26T00:00:00-04:00",
        "performer": [
          {
            "reference": "Practitioner/Practitioner-2516",
            "display": "Agnes Tammy Larson MD"
          }
        ],
        "valueQuantity": {
          "value": 142.02910456495692,
          "unit": "mmol/L"
        }
      },
      "request": {
        "method": "PUT",
        "url": "http://localhost:8080/cqf-ruler/baseDstu3/Observation/Observation-167419"
      }
    },
    {
      "fullUrl": "http://localhost:8080/cqf-ruler/baseDstu3/Observation/Observation-167420",
      "resource": {
        "resourceType": "Observation",
        "id": "Observation-167420",
        "meta": {
          "profile": [
            "http://hl7.org/fhir/us/hedis/StructureDefinition/hedis-observation"
          ]
        },
        "status": "final",
        "code": {
          "coding": [
            {
              "system": "http://loinc.org",
              "code": "6298-4",
              "display": "Potassium"
            }
          ]
        },
        "subject": {
          "reference": "Patient/Patient-6499",
          "display": "Pauline Shepherd Sweeney"
        },
        "context": {
          "reference": "Encounter/Encounter-756",
          "display": "Wellness Visit"
        },
        "effectiveDateTime": "1996-07-26T00:00:00-04:00",
        "performer": [
          {
            "reference": "Practitioner/Practitioner-2516",
            "display": "Agnes Tammy Larson MD"
          }
        ],
        "valueQuantity": {
          "value": 4.825486097369963,
          "unit": "mmol/L"
        }
      },
      "request": {
        "method": "PUT",
        "url": "http://localhost:8080/cqf-ruler/baseDstu3/Observation/Observation-167420"
      }
    },
    {
      "fullUrl": "http://localhost:8080/cqf-ruler/baseDstu3/Observation/Observation-167421",
      "resource": {
        "resourceType": "Observation",
        "id": "Observation-167421",
        "meta": {
          "profile": [
            "http://hl7.org/fhir/us/hedis/StructureDefinition/hedis-observation"
          ]
        },
        "status": "final",
        "code": {
          "coding": [
            {
              "system": "http://loinc.org",
              "code": "2069-3",
              "display": "Chloride"
            }
          ]
        },
        "subject": {
          "reference": "Patient/Patient-6499",
          "display": "Pauline Shepherd Sweeney"
        },
        "context": {
          "reference": "Encounter/Encounter-756",
          "display": "Wellness Visit"
        },
        "effectiveDateTime": "1996-07-26T00:00:00-04:00",
        "performer": [
          {
            "reference": "Practitioner/Practitioner-2516",
            "display": "Agnes Tammy Larson MD"
          }
        ],
        "valueQuantity": {
          "value": 106.35844569127538,
          "unit": "mmol/L"
        }
      },
      "request": {
        "method": "PUT",
        "url": "http://localhost:8080/cqf-ruler/baseDstu3/Observation/Observation-167421"
      }
    },
    {
      "fullUrl": "http://localhost:8080/cqf-ruler/baseDstu3/Observation/Observation-167422",
      "resource": {
        "resourceType": "Observation",
        "id": "Observation-167422",
        "meta": {
          "profile": [
            "http://hl7.org/fhir/us/hedis/StructureDefinition/hedis-observation"
          ]
        },
        "status": "final",
        "code": {
          "coding": [
            {
              "system": "http://loinc.org",
              "code": "20565-8",
              "display": "Carbon Dioxide"
            }
          ]
        },
        "subject": {
          "reference": "Patient/Patient-6499",
          "display": "Pauline Shepherd Sweeney"
        },
        "context": {
          "reference": "Encounter/Encounter-756",
          "display": "Wellness Visit"
        },
        "effectiveDateTime": "1996-07-26T00:00:00-04:00",
        "performer": [
          {
            "reference": "Practitioner/Practitioner-2516",
            "display": "Agnes Tammy Larson MD"
          }
        ],
        "valueQuantity": {
          "value": 26.618237063866054,
          "unit": "mmol/L"
        }
      },
      "request": {
        "method": "PUT",
        "url": "http://localhost:8080/cqf-ruler/baseDstu3/Observation/Observation-167422"
      }
    },
    {
      "fullUrl": "http://localhost:8080/cqf-ruler/baseDstu3/DiagnosticReport/DiagnosticReport-167423",
      "resource": {
        "resourceType": "DiagnosticReport",
        "id": "DiagnosticReport-167423",
        "meta": {
          "profile": [
            "http://hl7.org/fhir/us/hedis/StructureDefinition/hedis-diagnosticreport"
          ]
        },
        "status": "final",
        "category": {
          "coding": [
            {
              "system": "http://hl7.org/fhir/ValueSet/diagnostic-service-sections",
              "code": "LAB",
              "display": "Laboratory"
            }
          ]
        },
        "code": {
          "coding": [
            {
              "system": "http://loinc.org",
              "code": "51990-0",
              "display": "Basic Metabolic Panel"
            }
          ]
        },
        "subject": {
          "reference": "Patient/Patient-6499",
          "display": "Pauline Shepherd Sweeney"
        },
        "context": {
          "reference": "Encounter/Encounter-756",
          "display": "Wellness Visit"
        },
        "effectivePeriod": {
          "start": "1996-07-26T00:00:00-04:00",
          "end": "1996-07-26T00:00:00-04:00"
        },
        "issued": "1996-07-26T00:00:00.000-04:00",
        "result": [
          {
            "reference": "Observation/Observation-167415",
            "display": "Record_Glucose"
          },
          {
            "reference": "Observation/Observation-167416",
            "display": "Record_UreaNitrogen"
          },
          {
            "reference": "Observation/Observation-167417",
            "display": "Record_Creatinine"
          },
          {
            "reference": "Observation/Observation-167418",
            "display": "Record_Calcium"
          },
          {
            "reference": "Observation/Observation-167419",
            "display": "Record_Sodium"
          },
          {
            "reference": "Observation/Observation-167420",
            "display": "Record_Potassium"
          },
          {
            "reference": "Observation/Observation-167421",
            "display": "Record_Chloride"
          },
          {
            "reference": "Observation/Observation-167422",
            "display": "Record_CO2"
          }
        ]
      },
      "request": {
        "method": "PUT",
        "url": "http://localhost:8080/cqf-ruler/baseDstu3/DiagnosticReport/DiagnosticReport-167423"
      }
    },
    {
      "fullUrl": "http://localhost:8080/cqf-ruler/baseDstu3/Observation/Observation-167424",
      "resource": {
        "resourceType": "Observation",
        "id": "Observation-167424",
        "meta": {
          "profile": [
            "http://hl7.org/fhir/us/hedis/StructureDefinition/hedis-observation"
          ]
        },
        "status": "final",
        "code": {
          "coding": [
            {
              "system": "http://loinc.org",
              "code": "2093-3",
              "display": "Total Cholesterol"
            }
          ]
        },
        "subject": {
          "reference": "Patient/Patient-6499",
          "display": "Pauline Shepherd Sweeney"
        },
        "context": {
          "reference": "Encounter/Encounter-756",
          "display": "Wellness Visit"
        },
        "effectiveDateTime": "1996-07-26T00:00:00-04:00",
        "performer": [
          {
            "reference": "Practitioner/Practitioner-2516",
            "display": "Agnes Tammy Larson MD"
          }
        ],
        "valueQuantity": {
          "value": 153.0219903862648,
          "unit": "mg/dL"
        }
      },
      "request": {
        "method": "PUT",
        "url": "http://localhost:8080/cqf-ruler/baseDstu3/Observation/Observation-167424"
      }
    },
    {
      "fullUrl": "http://localhost:8080/cqf-ruler/baseDstu3/Observation/Observation-167425",
      "resource": {
        "resourceType": "Observation",
        "id": "Observation-167425",
        "meta": {
          "profile": [
            "http://hl7.org/fhir/us/hedis/StructureDefinition/hedis-observation"
          ]
        },
        "status": "final",
        "code": {
          "coding": [
            {
              "system": "http://loinc.org",
              "code": "2571-8",
              "display": "Triglycerides"
            }
          ]
        },
        "subject": {
          "reference": "Patient/Patient-6499",
          "display": "Pauline Shepherd Sweeney"
        },
        "context": {
          "reference": "Encounter/Encounter-756",
          "display": "Wellness Visit"
        },
        "effectiveDateTime": "1996-07-26T00:00:00-04:00",
        "performer": [
          {
            "reference": "Practitioner/Practitioner-2516",
            "display": "Agnes Tammy Larson MD"
          }
        ],
        "valueQuantity": {
          "value": 50.28827358397369,
          "unit": "mg/dL"
        }
      },
      "request": {
        "method": "PUT",
        "url": "http://localhost:8080/cqf-ruler/baseDstu3/Observation/Observation-167425"
      }
    },
    {
      "fullUrl": "http://localhost:8080/cqf-ruler/baseDstu3/Observation/Observation-167426",
      "resource": {
        "resourceType": "Observation",
        "id": "Observation-167426",
        "meta": {
          "profile": [
            "http://hl7.org/fhir/us/hedis/StructureDefinition/hedis-observation"
          ]
        },
        "status": "final",
        "code": {
          "coding": [
            {
              "system": "http://loinc.org",
              "code": "18262-6",
              "display": "Low Density Lipoprotein Cholesterol"
            }
          ]
        },
        "subject": {
          "reference": "Patient/Patient-6499",
          "display": "Pauline Shepherd Sweeney"
        },
        "context": {
          "reference": "Encounter/Encounter-756",
          "display": "Wellness Visit"
        },
        "effectiveDateTime": "1996-07-26T00:00:00-04:00",
        "performer": [
          {
            "reference": "Practitioner/Practitioner-2516",
            "display": "Agnes Tammy Larson MD"
          }
        ],
        "valueQuantity": {
          "value": 106.08634948413899,
          "unit": "mg/dL"
        }
      },
      "request": {
        "method": "PUT",
        "url": "http://localhost:8080/cqf-ruler/baseDstu3/Observation/Observation-167426"
      }
    },
    {
      "fullUrl": "http://localhost:8080/cqf-ruler/baseDstu3/Observation/Observation-167427",
      "resource": {
        "resourceType": "Observation",
        "id": "Observation-167427",
        "meta": {
          "profile": [
            "http://hl7.org/fhir/us/hedis/StructureDefinition/hedis-observation"
          ]
        },
        "status": "final",
        "code": {
          "coding": [
            {
              "system": "http://loinc.org",
              "code": "2085-9",
              "display": "High Density Lipoprotein Cholesterol"
            }
          ]
        },
        "subject": {
          "reference": "Patient/Patient-6499",
          "display": "Pauline Shepherd Sweeney"
        },
        "context": {
          "reference": "Encounter/Encounter-756",
          "display": "Wellness Visit"
        },
        "effectiveDateTime": "1996-07-26T00:00:00-04:00",
        "performer": [
          {
            "reference": "Practitioner/Practitioner-2516",
            "display": "Agnes Tammy Larson MD"
          }
        ],
        "valueQuantity": {
          "value": 36.87798618533108,
          "unit": "mg/dL"
        }
      },
      "request": {
        "method": "PUT",
        "url": "http://localhost:8080/cqf-ruler/baseDstu3/Observation/Observation-167427"
      }
    },
    {
      "fullUrl": "http://localhost:8080/cqf-ruler/baseDstu3/DiagnosticReport/DiagnosticReport-167428",
      "resource": {
        "resourceType": "DiagnosticReport",
        "id": "DiagnosticReport-167428",
        "meta": {
          "profile": [
            "http://hl7.org/fhir/us/hedis/StructureDefinition/hedis-diagnosticreport"
          ]
        },
        "status": "final",
        "category": {
          "coding": [
            {
              "system": "http://hl7.org/fhir/ValueSet/diagnostic-service-sections",
              "code": "LAB",
              "display": "Laboratory"
            }
          ]
        },
        "code": {
          "coding": [
            {
              "system": "http://loinc.org",
              "code": "57698-3",
              "display": "Lipid Panel"
            }
          ]
        },
        "subject": {
          "reference": "Patient/Patient-6499",
          "display": "Pauline Shepherd Sweeney"
        },
        "context": {
          "reference": "Encounter/Encounter-756",
          "display": "Wellness Visit"
        },
        "effectivePeriod": {
          "start": "1996-07-26T00:00:00-04:00",
          "end": "1996-07-26T00:00:00-04:00"
        },
        "issued": "1996-07-26T00:00:00.000-04:00",
        "result": [
          {
            "reference": "Observation/Observation-167424",
            "display": "Record_Cholesterol"
          },
          {
            "reference": "Observation/Observation-167425",
            "display": "Record_Triglycerides"
          },
          {
            "reference": "Observation/Observation-167426",
            "display": "Record_LDL"
          },
          {
            "reference": "Observation/Observation-167427",
            "display": "Record_HDL"
          }
        ]
      },
      "request": {
        "method": "PUT",
        "url": "http://localhost:8080/cqf-ruler/baseDstu3/DiagnosticReport/DiagnosticReport-167428"
      }
    },
    {
      "fullUrl": "http://localhost:8080/cqf-ruler/baseDstu3/Observation/Observation-167430",
      "resource": {
        "resourceType": "Observation",
        "id": "Observation-167430",
        "status": "final",
        "code": {
          "coding": [
            {
              "system": "http://loinc.org",
              "code": "8302-2",
              "display": "Height"
            }
          ]
        },
        "subject": {
          "reference": "Patient/Patient-6499",
          "display": "Pauline Shepherd Sweeney"
        },
        "context": {
          "reference": "Encounter/Encounter-756",
          "display": "Wellness Visit"
        },
        "effectiveDateTime": "1996-07-26T00:00:00-04:00",
        "performer": [
          {
            "reference": "Practitioner/Practitioner-2516",
            "display": "Agnes Tammy Larson MD"
          }
        ],
        "valueQuantity": {
          "value": 167.7,
          "unit": "cm"
        }
      },
      "request": {
        "method": "PUT",
        "url": "http://localhost:8080/cqf-ruler/baseDstu3/Observation/Observation-167430"
      }
    },
    {
      "fullUrl": "http://localhost:8080/cqf-ruler/baseDstu3/Observation/Observation-167431",
      "resource": {
        "resourceType": "Observation",
        "id": "Observation-167431",
        "status": "final",
        "code": {
          "coding": [
            {
              "system": "http://loinc.org",
              "code": "29463-7",
              "display": "Weight"
            }
          ]
        },
        "subject": {
          "reference": "Patient/Patient-6499",
          "display": "Pauline Shepherd Sweeney"
        },
        "context": {
          "reference": "Encounter/Encounter-756",
          "display": "Wellness Visit"
        },
        "effectiveDateTime": "1996-07-26T00:00:00-04:00",
        "performer": [
          {
            "reference": "Practitioner/Practitioner-2516",
            "display": "Agnes Tammy Larson MD"
          }
        ],
        "valueQuantity": {
          "value": 86.0410994612666,
          "unit": "kg"
        }
      },
      "request": {
        "method": "PUT",
        "url": "http://localhost:8080/cqf-ruler/baseDstu3/Observation/Observation-167431"
      }
    },
    {
      "fullUrl": "http://localhost:8080/cqf-ruler/baseDstu3/Observation/Observation-167432",
      "resource": {
        "resourceType": "Observation",
        "id": "Observation-167432",
        "status": "final",
        "code": {
          "coding": [
            {
              "system": "http://loinc.org",
              "code": "39156-5",
              "display": "BMI"
            }
          ]
        },
        "subject": {
          "reference": "Patient/Patient-6499",
          "display": "Pauline Shepherd Sweeney"
        },
        "context": {
          "reference": "Encounter/Encounter-756",
          "display": "Wellness Visit"
        },
        "effectiveDateTime": "1996-07-26T00:00:00-04:00",
        "performer": [
          {
            "reference": "Practitioner/Practitioner-2516",
            "display": "Agnes Tammy Larson MD"
          }
        ],
        "valueQuantity": {
          "value": 30.594251050025306,
          "unit": "kg/m2"
        }
      },
      "request": {
        "method": "PUT",
        "url": "http://localhost:8080/cqf-ruler/baseDstu3/Observation/Observation-167432"
      }
    },
    {
      "fullUrl": "http://localhost:8080/cqf-ruler/baseDstu3/Observation/Observation-167433",
      "resource": {
        "resourceType": "Observation",
        "id": "Observation-167433",
        "status": "final",
        "code": {
          "coding": [
            {
              "system": "http://loinc.org",
              "code": "8310-5",
              "display": "Temperature"
            }
          ]
        },
        "subject": {
          "reference": "Patient/Patient-6499",
          "display": "Pauline Shepherd Sweeney"
        },
        "context": {
          "reference": "Encounter/Encounter-756",
          "display": "Wellness Visit"
        },
        "effectiveDateTime": "1996-07-26T00:00:00-04:00",
        "performer": [
          {
            "reference": "Practitioner/Practitioner-2516",
            "display": "Agnes Tammy Larson MD"
          }
        ],
        "valueQuantity": {
          "value": 37.0,
          "unit": "C"
        }
      },
      "request": {
        "method": "PUT",
        "url": "http://localhost:8080/cqf-ruler/baseDstu3/Observation/Observation-167433"
      }
    },
    {
      "fullUrl": "http://localhost:8080/cqf-ruler/baseDstu3/Observation/Observation-167434",
      "resource": {
        "resourceType": "Observation",
        "id": "Observation-167434",
        "status": "final",
        "code": {
          "coding": [
            {
              "system": "http://loinc.org",
              "code": "8459-0",
              "display": "Systolic Blood Pressure"
            }
          ]
        },
        "subject": {
          "reference": "Patient/Patient-6499",
          "display": "Pauline Shepherd Sweeney"
        },
        "context": {
          "reference": "Encounter/Encounter-756",
          "display": "Wellness Visit"
        },
        "effectiveDateTime": "1996-07-26T00:00:00-04:00",
        "performer": [
          {
            "reference": "Practitioner/Practitioner-2516",
            "display": "Agnes Tammy Larson MD"
          }
        ],
        "valueQuantity": {
          "value": 155.77238713903142,
          "unit": "mmHg"
        }
      },
      "request": {
        "method": "PUT",
        "url": "http://localhost:8080/cqf-ruler/baseDstu3/Observation/Observation-167434"
      }
    },
    {
      "fullUrl": "http://localhost:8080/cqf-ruler/baseDstu3/Observation/Observation-167435",
      "resource": {
        "resourceType": "Observation",
        "id": "Observation-167435",
        "status": "final",
        "code": {
          "coding": [
            {
              "system": "http://loinc.org",
              "code": "8453-3",
              "display": "Diastolic Blood Pressure"
            }
          ]
        },
        "subject": {
          "reference": "Patient/Patient-6499",
          "display": "Pauline Shepherd Sweeney"
        },
        "context": {
          "reference": "Encounter/Encounter-756",
          "display": "Wellness Visit"
        },
        "effectiveDateTime": "1996-07-26T00:00:00-04:00",
        "performer": [
          {
            "reference": "Practitioner/Practitioner-2516",
            "display": "Agnes Tammy Larson MD"
          }
        ],
        "valueQuantity": {
          "value": 117.28813079207777,
          "unit": "mmHg"
        }
      },
      "request": {
        "method": "PUT",
        "url": "http://localhost:8080/cqf-ruler/baseDstu3/Observation/Observation-167435"
      }
    },
    {
      "fullUrl": "http://localhost:8080/cqf-ruler/baseDstu3/DiagnosticReport/DiagnosticReport-167429",
      "resource": {
        "resourceType": "DiagnosticReport",
        "id": "DiagnosticReport-167429",
        "meta": {
          "profile": [
            "http://hl7.org/fhir/us/hedis/StructureDefinition/hedis-diagnosticreport"
          ]
        },
        "status": "final",
        "category": {
          "coding": [
            {
              "system": "http://hl7.org/fhir/ValueSet/diagnostic-service-sections",
              "code": "LAB",
              "display": "Laboratory"
            }
          ]
        },
        "code": {
          "coding": [
            {
              "system": "http://loinc.org",
              "code": "8716-3",
              "display": "Vital Signs Panel"
            }
          ]
        },
        "subject": {
          "reference": "Patient/Patient-6499",
          "display": "Pauline Shepherd Sweeney"
        },
        "context": {
          "reference": "Encounter/Encounter-756",
          "display": "Wellness Visit"
        },
        "effectivePeriod": {
          "start": "1996-07-26T00:00:00-04:00",
          "end": "1996-07-26T00:00:00-04:00"
        },
        "issued": "1996-07-26T00:00:00.000-04:00",
        "result": [
          {
            "reference": "Observation/Observation-167430",
            "display": "Height"
          },
          {
            "reference": "Observation/Observation-167431",
            "display": "Weight"
          },
          {
            "reference": "Observation/Observation-167432",
            "display": "BMI"
          },
          {
            "reference": "Observation/Observation-167433",
            "display": "Temperature"
          },
          {
            "reference": "Observation/Observation-167434",
            "display": "Systolic Blood Pressure"
          },
          {
            "reference": "Observation/Observation-167435",
            "display": "Diastolic Blood Pressure"
          }
        ]
      },
      "request": {
        "method": "PUT",
        "url": "http://localhost:8080/cqf-ruler/baseDstu3/DiagnosticReport/DiagnosticReport-167429"
      }
    }
  ]
}