{
  "resourceType": "Bundle",
  "id": "Barbara-April-Howe-6535-Encounter-1332",
  "type": "transaction",
  "entry": [
    {
      "fullUrl": "http://localhost:8080/cqf-ruler/baseDstu3/Encounter/Encounter-1332",
      "resource": {
        "resourceType": "Encounter",
        "id": "Encounter-1332",
        "meta": {
          "profile": [
            "http://hl7.org/fhir/us/hedis/StructureDefinition/hedis-encounter"
          ]
        },
        "status": "finished",
        "class": {
          "system": "http://hl7.org/fhir/encounter-class",
          "code": "outpatient",
          "display": "Outpatient"
        },
        "subject": {
          "reference": "Patient/Patient-6535",
          "display": "Barbara April Howe"
        },
        "participant": [
          {
            "period": {
              "start": "2002-07-19T00:00:00-04:00",
              "end": "2002-07-19T00:00:00-04:00"
            },
            "individual": {
              "reference": "Practitioner/Practitioner-2532",
              "display": "Chad Espinoza Potter MD"
            }
          }
        ],
        "period": {
          "start": "2002-07-19T00:00:00-04:00",
          "end": "2002-07-19T00:00:00-04:00"
        },
        "location": [
          {
            "location": {
              "reference": "Location/Location-1105",
              "display": "Bayside Medical Group"
            }
          }
        ],
        "serviceProvider": {
          "reference": "Organization/Organization-1105",
          "display": "Bayside Medical Group"
        }
      },
      "request": {
        "method": "PUT",
        "url": "http://localhost:8080/cqf-ruler/baseDstu3/Encounter/Encounter-1332"
      }
    },
    {
      "fullUrl": "http://localhost:8080/cqf-ruler/baseDstu3/Immunization/Immunization-256529",
      "resource": {
        "resourceType": "Immunization",
        "id": "Immunization-256529",
        "status": "completed",
        "notGiven": false,
        "vaccineCode": {
          "coding": [
            {
              "system": "http://hl7.org/fhir/sid/cvx",
              "code": "140",
              "display": "Influenza, seasonal, injectable, preservative free"
            }
          ]
        },
        "patient": {
          "reference": "Patient/Patient-6535",
          "display": "Barbara April Howe"
        },
        "date": "2002-07-19T00:00:00-04:00",
        "primarySource": true,
        "location": {
          "reference": "Location/Location-1105",
          "display": "Bayside Medical Group"
        },
        "practitioner": [
          {
            "actor": {
              "reference": "Practitioner/Practitioner-2532",
              "display": "Chad Espinoza Potter MD"
            }
          }
        ]
      },
      "request": {
        "method": "PUT",
        "url": "http://localhost:8080/cqf-ruler/baseDstu3/Immunization/Immunization-256529"
      }
    },
    {
      "fullUrl": "http://localhost:8080/cqf-ruler/baseDstu3/Procedure/Procedure-301531",
      "resource": {
        "resourceType": "Procedure",
        "id": "Procedure-301531",
        "meta": {
          "profile": [
            "http://hl7.org/fhir/us/hedis/StructureDefinition/hedis-procedure"
          ]
        },
        "status": "completed",
        "code": {
          "coding": [
            {
              "system": "http://snomed.info/sct",
              "code": "713127001",
              "display": "Assessment of alcohol use"
            }
          ]
        },
        "subject": {
          "reference": "Patient/Patient-6535",
          "display": "Barbara April Howe"
        },
        "context": {
          "reference": "Encounter/Encounter-1332",
          "display": "Wellness Visit"
        },
        "performedPeriod": {
          "start": "2002-07-19T00:00:00-04:00",
          "end": "2002-07-19T00:00:00-04:00"
        },
        "performer": [
          {
            "actor": {
              "reference": "Practitioner/Practitioner-2532",
              "display": "Chad Espinoza Potter MD"
            }
          }
        ],
        "location": {
          "reference": "Location/Location-1105",
          "display": "Bayside Medical Group"
        }
      },
      "request": {
        "method": "PUT",
        "url": "http://localhost:8080/cqf-ruler/baseDstu3/Procedure/Procedure-301531"
      }
    },
    {
      "fullUrl": "http://localhost:8080/cqf-ruler/baseDstu3/Observation/Observation-301532",
      "resource": {
        "resourceType": "Observation",
        "id": "Observation-301532",
        "meta": {
          "profile": [
            "http://hl7.org/fhir/us/hedis/StructureDefinition/hedis-observation"
          ]
        },
        "status": "final",
        "code": {
          "coding": [
            {
              "system": "TEST",
              "code": "2.16.840.1.113883.3.464.1003.106.11.1035",
              "display": "Five or more drinks per day"
            }
          ]
        },
        "subject": {
          "reference": "Patient/Patient-6535",
          "display": "Barbara April Howe"
        },
        "context": {
          "reference": "Encounter/Encounter-1332",
          "display": "Wellness Visit"
        },
        "effectiveDateTime": "2002-07-19T00:00:00-04:00",
        "performer": [
          {
            "reference": "Practitioner/Practitioner-2532",
            "display": "Chad Espinoza Potter MD"
          }
        ],
        "valueQuantity": {
          "value": 8.0,
          "unit": "score"
        }
      },
      "request": {
        "method": "PUT",
        "url": "http://localhost:8080/cqf-ruler/baseDstu3/Observation/Observation-301532"
      }
    },
    {
      "fullUrl": "http://localhost:8080/cqf-ruler/baseDstu3/Observation/Observation-301533",
      "resource": {
        "resourceType": "Observation",
        "id": "Observation-301533",
        "meta": {
          "profile": [
            "http://hl7.org/fhir/us/hedis/StructureDefinition/hedis-observation"
          ]
        },
        "status": "final",
        "code": {
          "coding": [
            {
              "system": "TEST",
              "code": "2.16.840.1.113883.3.464.1003.107.12.1022",
              "display": "AUDIT-C Total Score (in points)"
            }
          ]
        },
        "subject": {
          "reference": "Patient/Patient-6535",
          "display": "Barbara April Howe"
        },
        "context": {
          "reference": "Encounter/Encounter-1332",
          "display": "Wellness Visit"
        },
        "effectiveDateTime": "2002-07-19T00:00:00-04:00",
        "performer": [
          {
            "reference": "Practitioner/Practitioner-2532",
            "display": "Chad Espinoza Potter MD"
          }
        ],
        "valueQuantity": {
          "value": 7.0,
          "unit": "score"
        }
      },
      "request": {
        "method": "PUT",
        "url": "http://localhost:8080/cqf-ruler/baseDstu3/Observation/Observation-301533"
      }
    },
    {
      "fullUrl": "http://localhost:8080/cqf-ruler/baseDstu3/Procedure/Procedure-301534",
      "resource": {
        "resourceType": "Procedure",
        "id": "Procedure-301534",
        "meta": {
          "profile": [
            "http://hl7.org/fhir/us/hedis/StructureDefinition/hedis-procedure"
          ]
        },
        "status": "completed",
        "code": {
          "coding": [
            {
              "system": "http://www.ama-assn.org/go/cpt",
              "code": "77063",
              "display": "Screening digital breast tomosynthesis, bilateral (List separately in addition to code for primary procedure)"
            }
          ]
        },
        "subject": {
          "reference": "Patient/Patient-6535",
          "display": "Barbara April Howe"
        },
        "context": {
          "reference": "Encounter/Encounter-1332",
          "display": "Wellness Visit"
        },
        "performedPeriod": {
          "start": "2002-07-19T00:00:00-04:00",
          "end": "2002-07-19T00:00:00-04:00"
        },
        "performer": [
          {
            "actor": {
              "reference": "Practitioner/Practitioner-2532",
              "display": "Chad Espinoza Potter MD"
            }
          }
        ],
        "location": {
          "reference": "Location/Location-1105",
          "display": "Bayside Medical Group"
        }
      },
      "request": {
        "method": "PUT",
        "url": "http://localhost:8080/cqf-ruler/baseDstu3/Procedure/Procedure-301534"
      }
    },
    {
      "fullUrl": "http://localhost:8080/cqf-ruler/baseDstu3/Observation/Observation-301535",
      "resource": {
        "resourceType": "Observation",
        "id": "Observation-301535",
        "meta": {
          "profile": [
            "http://hl7.org/fhir/us/hedis/StructureDefinition/hedis-observation"
          ]
        },
        "status": "final",
        "code": {
          "coding": [
            {
              "system": "http://snomed.info/sct",
              "code": "168749009",
              "display": "Mammography normal (finding)"
            }
          ]
        },
        "subject": {
          "reference": "Patient/Patient-6535",
          "display": "Barbara April Howe"
        },
        "context": {
          "reference": "Encounter/Encounter-1332",
          "display": "Wellness Visit"
        },
        "effectiveDateTime": "2002-07-19T00:00:00-04:00",
        "performer": [
          {
            "reference": "Practitioner/Practitioner-2532",
            "display": "Chad Espinoza Potter MD"
          }
        ],
        "valueString": "NEGATIVE"
      },
      "request": {
        "method": "PUT",
        "url": "http://localhost:8080/cqf-ruler/baseDstu3/Observation/Observation-301535"
      }
    },
    {
      "fullUrl": "http://localhost:8080/cqf-ruler/baseDstu3/DiagnosticReport/DiagnosticReport-301536",
      "resource": {
        "resourceType": "DiagnosticReport",
        "id": "DiagnosticReport-301536",
        "meta": {
          "profile": [
            "http://hl7.org/fhir/us/hedis/StructureDefinition/hedis-diagnosticreport"
          ]
        },
        "status": "final",
        "category": {
          "coding": [
            {
              "system": "http://hl7.org/fhir/ValueSet/diagnostic-service-sections",
              "code": "RAD",
              "display": "Radiology"
            }
          ]
        },
        "code": {
          "coding": [
            {
              "system": "http://loinc.org",
              "code": "37028-8",
              "display": "Breast Mammogram tangential"
            }
          ]
        },
        "subject": {
          "reference": "Patient/Patient-6535",
          "display": "Barbara April Howe"
        },
        "context": {
          "reference": "Encounter/Encounter-1332",
          "display": "Wellness Visit"
        },
        "effectivePeriod": {
          "start": "2002-07-19T00:00:00-04:00",
          "end": "2002-07-19T00:00:00-04:00"
        },
        "issued": "2002-07-19T00:00:00.000-04:00",
        "result": [
          {
            "reference": "Observation/Observation-301535",
            "display": "No_Cancer_Detected"
          }
        ]
      },
      "request": {
        "method": "PUT",
        "url": "http://localhost:8080/cqf-ruler/baseDstu3/DiagnosticReport/DiagnosticReport-301536"
      }
    },
    {
      "fullUrl": "http://localhost:8080/cqf-ruler/baseDstu3/Observation/Observation-301537",
      "resource": {
        "resourceType": "Observation",
        "id": "Observation-301537",
        "meta": {
          "profile": [
            "http://hl7.org/fhir/us/hedis/StructureDefinition/hedis-observation"
          ]
        },
        "status": "final",
        "code": {
          "coding": [
            {
              "system": "http://loinc.org",
              "code": "8480-6",
              "display": "Systolic blood pressure"
            }
          ]
        },
        "subject": {
          "reference": "Patient/Patient-6535",
          "display": "Barbara April Howe"
        },
        "context": {
          "reference": "Encounter/Encounter-1332",
          "display": "Wellness Visit"
        },
        "effectiveDateTime": "2002-07-19T00:00:00-04:00",
        "performer": [
          {
            "reference": "Practitioner/Practitioner-2532",
            "display": "Chad Espinoza Potter MD"
          }
        ],
        "valueQuantity": {
          "value": 149.60744534362203,
          "unit": "mmHg"
        }
      },
      "request": {
        "method": "PUT",
        "url": "http://localhost:8080/cqf-ruler/baseDstu3/Observation/Observation-301537"
      }
    },
    {
      "fullUrl": "http://localhost:8080/cqf-ruler/baseDstu3/Observation/Observation-301538",
      "resource": {
        "resourceType": "Observation",
        "id": "Observation-301538",
        "meta": {
          "profile": [
            "http://hl7.org/fhir/us/hedis/StructureDefinition/hedis-observation"
          ]
        },
        "status": "final",
        "code": {
          "coding": [
            {
              "system": "http://loinc.org",
              "code": "8462-4",
              "display": "Diastolic blood pressure"
            }
          ]
        },
        "subject": {
          "reference": "Patient/Patient-6535",
          "display": "Barbara April Howe"
        },
        "context": {
          "reference": "Encounter/Encounter-1332",
          "display": "Wellness Visit"
        },
        "effectiveDateTime": "2002-07-19T00:00:00-04:00",
        "performer": [
          {
            "reference": "Practitioner/Practitioner-2532",
            "display": "Chad Espinoza Potter MD"
          }
        ],
        "valueQuantity": {
          "value": 84.27905537460225,
          "unit": "mmHg"
        }
      },
      "request": {
        "method": "PUT",
        "url": "http://localhost:8080/cqf-ruler/baseDstu3/Observation/Observation-301538"
      }
    },
    {
      "fullUrl": "http://localhost:8080/cqf-ruler/baseDstu3/Condition/Condition-301539",
      "resource": {
        "resourceType": "Condition",
        "id": "Condition-301539",
        "meta": {
          "profile": [
            "http://hl7.org/fhir/us/hedis/StructureDefinition/hedis-condition"
          ]
        },
        "clinicalStatus": "active",
        "verificationStatus": "confirmed",
        "code": {
          "coding": [
            {
              "system": "http://snomed.info/sct",
              "code": "48146000",
              "display": "Diastolic hypertension"
            }
          ]
        },
        "subject": {
          "reference": "Patient/Patient-6535",
          "display": "Barbara April Howe"
        },
        "context": {
          "reference": "Encounter/Encounter-1332",
          "display": "Wellness Visit"
        },
        "onsetDateTime": "2002-07-19T00:00:00-04:00",
        "assertedDate": "2002-07-19T00:00:00-04:00",
        "asserter": {
          "reference": "Practitioner/Practitioner-2532",
          "display": "Chad Espinoza Potter MD"
        }
      },
      "request": {
        "method": "PUT",
        "url": "http://localhost:8080/cqf-ruler/baseDstu3/Condition/Condition-301539"
      }
    },
    {
      "fullUrl": "http://localhost:8080/cqf-ruler/baseDstu3/Procedure/Procedure-301540",
      "resource": {
        "resourceType": "Procedure",
        "id": "Procedure-301540",
        "meta": {
          "profile": [
            "http://hl7.org/fhir/us/hedis/StructureDefinition/hedis-procedure"
          ]
        },
        "status": "completed",
        "code": {
          "coding": [
            {
              "system": "http://www.ama-assn.org/go/cpt",
              "code": "82270",
              "display": "Blood, occult, by peroxidase activity (eg, guaiac), qualitative; feces, consecutive collected specimens with single determination, for colorectal neoplasm screening (ie, patient was provided 3 cards or single triple card for consecutive collection)"
            }
          ]
        },
        "subject": {
          "reference": "Patient/Patient-6535",
          "display": "Barbara April Howe"
        },
        "context": {
          "reference": "Encounter/Encounter-1332",
          "display": "Wellness Visit"
        },
        "performedPeriod": {
          "start": "2002-07-19T00:00:00-04:00",
          "end": "2002-07-19T00:00:00-04:00"
        },
        "performer": [
          {
            "actor": {
              "reference": "Practitioner/Practitioner-2532",
              "display": "Chad Espinoza Potter MD"
            }
          }
        ],
        "location": {
          "reference": "Location/Location-1105",
          "display": "Bayside Medical Group"
        }
      },
      "request": {
        "method": "PUT",
        "url": "http://localhost:8080/cqf-ruler/baseDstu3/Procedure/Procedure-301540"
      }
    },
    {
      "fullUrl": "http://localhost:8080/cqf-ruler/baseDstu3/Observation/Observation-301541",
      "resource": {
        "resourceType": "Observation",
        "id": "Observation-301541",
        "meta": {
          "profile": [
            "http://hl7.org/fhir/us/hedis/StructureDefinition/hedis-observation"
          ]
        },
        "status": "final",
        "code": {
          "coding": [
            {
              "system": "http://www.ama-assn.org/go/cpt",
              "code": "82274",
              "display": "Blood, occult, by fecal hemoglobin determination by immunoassay, qualitative, feces, 1-3 simultaneous determinations"
            }
          ]
        },
        "subject": {
          "reference": "Patient/Patient-6535",
          "display": "Barbara April Howe"
        },
        "context": {
          "reference": "Encounter/Encounter-1332",
          "display": "Wellness Visit"
        },
        "effectiveDateTime": "2002-07-19T00:00:00-04:00",
        "performer": [
          {
            "reference": "Practitioner/Practitioner-2532",
            "display": "Chad Espinoza Potter MD"
          }
        ],
        "valueString": "POSITIVE"
      },
      "request": {
        "method": "PUT",
        "url": "http://localhost:8080/cqf-ruler/baseDstu3/Observation/Observation-301541"
      }
    },
    {
      "fullUrl": "http://localhost:8080/cqf-ruler/baseDstu3/Observation/Observation-301544",
      "resource": {
        "resourceType": "Observation",
        "id": "Observation-301544",
        "status": "final",
        "code": {
          "coding": [
            {
              "system": "http://loinc.org",
              "code": "8302-2",
              "display": "Height"
            }
          ]
        },
        "subject": {
          "reference": "Patient/Patient-6535",
          "display": "Barbara April Howe"
        },
        "context": {
          "reference": "Encounter/Encounter-1332",
          "display": "Wellness Visit"
        },
        "effectiveDateTime": "2002-07-19T00:00:00-04:00",
        "performer": [
          {
            "reference": "Practitioner/Practitioner-2532",
            "display": "Chad Espinoza Potter MD"
          }
        ],
        "valueQuantity": {
          "value": 163.3,
          "unit": "cm"
        }
      },
      "request": {
        "method": "PUT",
        "url": "http://localhost:8080/cqf-ruler/baseDstu3/Observation/Observation-301544"
      }
    },
    {
      "fullUrl": "http://localhost:8080/cqf-ruler/baseDstu3/Observation/Observation-301545",
      "resource": {
        "resourceType": "Observation",
        "id": "Observation-301545",
        "status": "final",
        "code": {
          "coding": [
            {
              "system": "http://loinc.org",
              "code": "29463-7",
              "display": "Weight"
            }
          ]
        },
        "subject": {
          "reference": "Patient/Patient-6535",
          "display": "Barbara April Howe"
        },
        "context": {
          "reference": "Encounter/Encounter-1332",
          "display": "Wellness Visit"
        },
        "effectiveDateTime": "2002-07-19T00:00:00-04:00",
        "performer": [
          {
            "reference": "Practitioner/Practitioner-2532",
            "display": "Chad Espinoza Potter MD"
          }
        ],
        "valueQuantity": {
          "value": 59.69337075856941,
          "unit": "kg"
        }
      },
      "request": {
        "method": "PUT",
        "url": "http://localhost:8080/cqf-ruler/baseDstu3/Observation/Observation-301545"
      }
    },
    {
      "fullUrl": "http://localhost:8080/cqf-ruler/baseDstu3/Observation/Observation-301546",
      "resource": {
        "resourceType": "Observation",
        "id": "Observation-301546",
        "status": "final",
        "code": {
          "coding": [
            {
              "system": "http://loinc.org",
              "code": "39156-5",
              "display": "BMI"
            }
          ]
        },
        "subject": {
          "reference": "Patient/Patient-6535",
          "display": "Barbara April Howe"
        },
        "context": {
          "reference": "Encounter/Encounter-1332",
          "display": "Wellness Visit"
        },
        "effectiveDateTime": "2002-07-19T00:00:00-04:00",
        "performer": [
          {
            "reference": "Practitioner/Practitioner-2532",
            "display": "Chad Espinoza Potter MD"
          }
        ],
        "valueQuantity": {
          "value": 22.384826561541075,
          "unit": "kg/m2"
        }
      },
      "request": {
        "method": "PUT",
        "url": "http://localhost:8080/cqf-ruler/baseDstu3/Observation/Observation-301546"
      }
    },
    {
      "fullUrl": "http://localhost:8080/cqf-ruler/baseDstu3/Observation/Observation-301547",
      "resource": {
        "resourceType": "Observation",
        "id": "Observation-301547",
        "status": "final",
        "code": {
          "coding": [
            {
              "system": "http://loinc.org",
              "code": "8310-5",
              "display": "Temperature"
            }
          ]
        },
        "subject": {
          "reference": "Patient/Patient-6535",
          "display": "Barbara April Howe"
        },
        "context": {
          "reference": "Encounter/Encounter-1332",
          "display": "Wellness Visit"
        },
        "effectiveDateTime": "2002-07-19T00:00:00-04:00",
        "performer": [
          {
            "reference": "Practitioner/Practitioner-2532",
            "display": "Chad Espinoza Potter MD"
          }
        ],
        "valueQuantity": {
          "value": 37.0,
          "unit": "C"
        }
      },
      "request": {
        "method": "PUT",
        "url": "http://localhost:8080/cqf-ruler/baseDstu3/Observation/Observation-301547"
      }
    },
    {
      "fullUrl": "http://localhost:8080/cqf-ruler/baseDstu3/Observation/Observation-301548",
      "resource": {
        "resourceType": "Observation",
        "id": "Observation-301548",
        "status": "final",
        "code": {
          "coding": [
            {
              "system": "http://loinc.org",
              "code": "8459-0",
              "display": "Systolic Blood Pressure"
            }
          ]
        },
        "subject": {
          "reference": "Patient/Patient-6535",
          "display": "Barbara April Howe"
        },
        "context": {
          "reference": "Encounter/Encounter-1332",
          "display": "Wellness Visit"
        },
        "effectiveDateTime": "2002-07-19T00:00:00-04:00",
        "performer": [
          {
            "reference": "Practitioner/Practitioner-2532",
            "display": "Chad Espinoza Potter MD"
          }
        ],
        "valueQuantity": {
          "value": 149.60744534362203,
          "unit": "mmHg"
        }
      },
      "request": {
        "method": "PUT",
        "url": "http://localhost:8080/cqf-ruler/baseDstu3/Observation/Observation-301548"
      }
    },
    {
      "fullUrl": "http://localhost:8080/cqf-ruler/baseDstu3/Observation/Observation-301549",
      "resource": {
        "resourceType": "Observation",
        "id": "Observation-301549",
        "status": "final",
        "code": {
          "coding": [
            {
              "system": "http://loinc.org",
              "code": "8453-3",
              "display": "Diastolic Blood Pressure"
            }
          ]
        },
        "subject": {
          "reference": "Patient/Patient-6535",
          "display": "Barbara April Howe"
        },
        "context": {
          "reference": "Encounter/Encounter-1332",
          "display": "Wellness Visit"
        },
        "effectiveDateTime": "2002-07-19T00:00:00-04:00",
        "performer": [
          {
            "reference": "Practitioner/Practitioner-2532",
            "display": "Chad Espinoza Potter MD"
          }
        ],
        "valueQuantity": {
          "value": 84.27905537460225,
          "unit": "mmHg"
        }
      },
      "request": {
        "method": "PUT",
        "url": "http://localhost:8080/cqf-ruler/baseDstu3/Observation/Observation-301549"
      }
    },
    {
      "fullUrl": "http://localhost:8080/cqf-ruler/baseDstu3/DiagnosticReport/DiagnosticReport-301543",
      "resource": {
        "resourceType": "DiagnosticReport",
        "id": "DiagnosticReport-301543",
        "meta": {
          "profile": [
            "http://hl7.org/fhir/us/hedis/StructureDefinition/hedis-diagnosticreport"
          ]
        },
        "status": "final",
        "category": {
          "coding": [
            {
              "system": "http://hl7.org/fhir/ValueSet/diagnostic-service-sections",
              "code": "LAB",
              "display": "Laboratory"
            }
          ]
        },
        "code": {
          "coding": [
            {
              "system": "http://loinc.org",
              "code": "8716-3",
              "display": "Vital Signs Panel"
            }
          ]
        },
        "subject": {
          "reference": "Patient/Patient-6535",
          "display": "Barbara April Howe"
        },
        "context": {
          "reference": "Encounter/Encounter-1332",
          "display": "Wellness Visit"
        },
        "effectivePeriod": {
          "start": "2002-07-19T00:00:00-04:00",
          "end": "2002-07-19T00:00:00-04:00"
        },
        "issued": "2002-07-19T00:00:00.000-04:00",
        "result": [
          {
            "reference": "Observation/Observation-301544",
            "display": "Height"
          },
          {
            "reference": "Observation/Observation-301545",
            "display": "Weight"
          },
          {
            "reference": "Observation/Observation-301546",
            "display": "BMI"
          },
          {
            "reference": "Observation/Observation-301547",
            "display": "Temperature"
          },
          {
            "reference": "Observation/Observation-301548",
            "display": "Systolic Blood Pressure"
          },
          {
            "reference": "Observation/Observation-301549",
            "display": "Diastolic Blood Pressure"
          }
        ]
      },
      "request": {
        "method": "PUT",
        "url": "http://localhost:8080/cqf-ruler/baseDstu3/DiagnosticReport/DiagnosticReport-301543"
      }
    },
    {
      "fullUrl": "http://localhost:8080/cqf-ruler/baseDstu3/Observation/Observation-301561",
      "resource": {
        "resourceType": "Observation",
        "id": "Observation-301561",
        "meta": {
          "profile": [
            "http://hl7.org/fhir/us/hedis/StructureDefinition/hedis-observation"
          ]
        },
        "status": "final",
        "code": {
          "coding": [
            {
              "system": "http://loinc.org",
              "code": "8302-2",
              "display": "Body Height"
            }
          ]
        },
        "subject": {
          "reference": "Patient/Patient-6535",
          "display": "Barbara April Howe"
        },
        "context": {
          "reference": "Encounter/Encounter-1332",
          "display": "Wellness Visit"
        },
        "effectiveDateTime": "2002-07-19T00:00:00-04:00",
        "performer": [
          {
            "reference": "Practitioner/Practitioner-2532",
            "display": "Chad Espinoza Potter MD"
          }
        ],
        "valueQuantity": {
          "value": 163.3,
          "unit": "cm"
        }
      },
      "request": {
        "method": "PUT",
        "url": "http://localhost:8080/cqf-ruler/baseDstu3/Observation/Observation-301561"
      }
    },
    {
      "fullUrl": "http://localhost:8080/cqf-ruler/baseDstu3/Observation/Observation-301562",
      "resource": {
        "resourceType": "Observation",
        "id": "Observation-301562",
        "meta": {
          "profile": [
            "http://hl7.org/fhir/us/hedis/StructureDefinition/hedis-observation"
          ]
        },
        "status": "final",
        "code": {
          "coding": [
            {
              "system": "http://loinc.org",
              "code": "29463-7",
              "display": "Body Weight"
            }
          ]
        },
        "subject": {
          "reference": "Patient/Patient-6535",
          "display": "Barbara April Howe"
        },
        "context": {
          "reference": "Encounter/Encounter-1332",
          "display": "Wellness Visit"
        },
        "effectiveDateTime": "2002-07-19T00:00:00-04:00",
        "performer": [
          {
            "reference": "Practitioner/Practitioner-2532",
            "display": "Chad Espinoza Potter MD"
          }
        ],
        "valueQuantity": {
          "value": 59.69337075856941,
          "unit": "kg"
        }
      },
      "request": {
        "method": "PUT",
        "url": "http://localhost:8080/cqf-ruler/baseDstu3/Observation/Observation-301562"
      }
    },
    {
      "fullUrl": "http://localhost:8080/cqf-ruler/baseDstu3/Observation/Observation-301563",
      "resource": {
        "resourceType": "Observation",
        "id": "Observation-301563",
        "meta": {
          "profile": [
            "http://hl7.org/fhir/us/hedis/StructureDefinition/hedis-observation"
          ]
        },
        "status": "final",
        "code": {
          "coding": [
            {
              "system": "http://loinc.org",
              "code": "39156-5",
              "display": "Body Mass Index"
            }
          ]
        },
        "subject": {
          "reference": "Patient/Patient-6535",
          "display": "Barbara April Howe"
        },
        "context": {
          "reference": "Encounter/Encounter-1332",
          "display": "Wellness Visit"
        },
        "effectiveDateTime": "2002-07-19T00:00:00-04:00",
        "performer": [
          {
            "reference": "Practitioner/Practitioner-2532",
            "display": "Chad Espinoza Potter MD"
          }
        ],
        "valueQuantity": {
          "value": 22.384826561541075,
          "unit": "kg/m2"
        }
      },
      "request": {
        "method": "PUT",
        "url": "http://localhost:8080/cqf-ruler/baseDstu3/Observation/Observation-301563"
      }
    },
    {
      "fullUrl": "http://localhost:8080/cqf-ruler/baseDstu3/Observation/Observation-301566",
      "resource": {
        "resourceType": "Observation",
        "id": "Observation-301566",
        "meta": {
          "profile": [
            "http://hl7.org/fhir/us/hedis/StructureDefinition/hedis-observation"
          ]
        },
        "status": "final",
        "code": {
          "coding": [
            {
              "system": "http://loinc.org",
              "code": "55284-4",
              "display": "Blood Pressure"
            }
          ]
        },
        "subject": {
          "reference": "Patient/Patient-6535",
          "display": "Barbara April Howe"
        },
        "context": {
          "reference": "Encounter/Encounter-1332",
          "display": "Wellness Visit"
        },
        "effectiveDateTime": "2002-07-19T00:00:00-04:00",
        "valueQuantity": {
          "value": 84.27905537460225,
          "unit": "mmHg"
        },
        "component": [
          {
            "code": {
              "coding": [
                {
                  "system": "http://loinc.org",
                  "code": "8480-6",
                  "display": "Systolic Blood Pressure"
                }
              ]
            }
          },
          {
            "code": {
              "coding": [
                {
                  "system": "http://loinc.org",
                  "code": "8462-4",
                  "display": "Diastolic Blood Pressure"
                }
              ]
            }
          }
        ]
      },
      "request": {
        "method": "PUT",
        "url": "http://localhost:8080/cqf-ruler/baseDstu3/Observation/Observation-301566"
      }
    },
    {
      "fullUrl": "http://localhost:8080/cqf-ruler/baseDstu3/Observation/Observation-301567",
      "resource": {
        "resourceType": "Observation",
        "id": "Observation-301567",
        "meta": {
          "profile": [
            "http://hl7.org/fhir/us/hedis/StructureDefinition/hedis-observation"
          ]
        },
        "status": "final",
        "code": {
          "coding": [
            {
              "system": "http://loinc.org",
              "code": "4548-4",
              "display": "Hemoglobin A1c/Hemoglobin.total in Blood"
            }
          ]
        },
        "subject": {
          "reference": "Patient/Patient-6535",
          "display": "Barbara April Howe"
        },
        "context": {
          "reference": "Encounter/Encounter-1332",
          "display": "Wellness Visit"
        },
        "effectiveDateTime": "2002-07-19T00:00:00-04:00",
        "performer": [
          {
            "reference": "Practitioner/Practitioner-2532",
            "display": "Chad Espinoza Potter MD"
          }
        ],
        "valueQuantity": {
          "value": 5.294043769145407,
          "unit": "%"
        }
      },
      "request": {
        "method": "PUT",
        "url": "http://localhost:8080/cqf-ruler/baseDstu3/Observation/Observation-301567"
      }
    },
    {
      "fullUrl": "http://localhost:8080/cqf-ruler/baseDstu3/Observation/Observation-301568",
      "resource": {
        "resourceType": "Observation",
        "id": "Observation-301568",
        "meta": {
          "profile": [
            "http://hl7.org/fhir/us/hedis/StructureDefinition/hedis-observation"
          ]
        },
        "status": "final",
        "code": {
          "coding": [
            {
              "system": "http://loinc.org",
              "code": "2339-0",
              "display": "Glucose"
            }
          ]
        },
        "subject": {
          "reference": "Patient/Patient-6535",
          "display": "Barbara April Howe"
        },
        "context": {
          "reference": "Encounter/Encounter-1332",
          "display": "Wellness Visit"
        },
        "effectiveDateTime": "2002-07-19T00:00:00-04:00",
        "performer": [
          {
            "reference": "Practitioner/Practitioner-2532",
            "display": "Chad Espinoza Potter MD"
          }
        ],
        "valueQuantity": {
          "value": 91.82170783928484,
          "unit": "mg/dL"
        }
      },
      "request": {
        "method": "PUT",
        "url": "http://localhost:8080/cqf-ruler/baseDstu3/Observation/Observation-301568"
      }
    },
    {
      "fullUrl": "http://localhost:8080/cqf-ruler/baseDstu3/Observation/Observation-301569",
      "resource": {
        "resourceType": "Observation",
        "id": "Observation-301569",
        "meta": {
          "profile": [
            "http://hl7.org/fhir/us/hedis/StructureDefinition/hedis-observation"
          ]
        },
        "status": "final",
        "code": {
          "coding": [
            {
              "system": "http://loinc.org",
              "code": "6299-2",
              "display": "Urea Nitrogen"
            }
          ]
        },
        "subject": {
          "reference": "Patient/Patient-6535",
          "display": "Barbara April Howe"
        },
        "context": {
          "reference": "Encounter/Encounter-1332",
          "display": "Wellness Visit"
        },
        "effectiveDateTime": "2002-07-19T00:00:00-04:00",
        "performer": [
          {
            "reference": "Practitioner/Practitioner-2532",
            "display": "Chad Espinoza Potter MD"
          }
        ],
        "valueQuantity": {
          "value": 9.58324278908815,
          "unit": "mg/dL"
        }
      },
      "request": {
        "method": "PUT",
        "url": "http://localhost:8080/cqf-ruler/baseDstu3/Observation/Observation-301569"
      }
    },
    {
      "fullUrl": "http://localhost:8080/cqf-ruler/baseDstu3/Observation/Observation-301570",
      "resource": {
        "resourceType": "Observation",
        "id": "Observation-301570",
        "meta": {
          "profile": [
            "http://hl7.org/fhir/us/hedis/StructureDefinition/hedis-observation"
          ]
        },
        "status": "final",
        "code": {
          "coding": [
            {
              "system": "http://loinc.org",
              "code": "38483-4",
              "display": "Creatinine"
            }
          ]
        },
        "subject": {
          "reference": "Patient/Patient-6535",
          "display": "Barbara April Howe"
        },
        "context": {
          "reference": "Encounter/Encounter-1332",
          "display": "Wellness Visit"
        },
        "effectiveDateTime": "2002-07-19T00:00:00-04:00",
        "performer": [
          {
            "reference": "Practitioner/Practitioner-2532",
            "display": "Chad Espinoza Potter MD"
          }
        ],
        "valueQuantity": {
          "value": 1.5429044283371127,
          "unit": "mg/dL"
        }
      },
      "request": {
        "method": "PUT",
        "url": "http://localhost:8080/cqf-ruler/baseDstu3/Observation/Observation-301570"
      }
    },
    {
      "fullUrl": "http://localhost:8080/cqf-ruler/baseDstu3/Observation/Observation-301571",
      "resource": {
        "resourceType": "Observation",
        "id": "Observation-301571",
        "meta": {
          "profile": [
            "http://hl7.org/fhir/us/hedis/StructureDefinition/hedis-observation"
          ]
        },
        "status": "final",
        "code": {
          "coding": [
            {
              "system": "http://loinc.org",
              "code": "49765-1",
              "display": "Calcium"
            }
          ]
        },
        "subject": {
          "reference": "Patient/Patient-6535",
          "display": "Barbara April Howe"
        },
        "context": {
          "reference": "Encounter/Encounter-1332",
          "display": "Wellness Visit"
        },
        "effectiveDateTime": "2002-07-19T00:00:00-04:00",
        "performer": [
          {
            "reference": "Practitioner/Practitioner-2532",
            "display": "Chad Espinoza Potter MD"
          }
        ],
        "valueQuantity": {
          "value": 2.704853241099851,
          "unit": "mmol/L"
        }
      },
      "request": {
        "method": "PUT",
        "url": "http://localhost:8080/cqf-ruler/baseDstu3/Observation/Observation-301571"
      }
    },
    {
      "fullUrl": "http://localhost:8080/cqf-ruler/baseDstu3/Observation/Observation-301572",
      "resource": {
        "resourceType": "Observation",
        "id": "Observation-301572",
        "meta": {
          "profile": [
            "http://hl7.org/fhir/us/hedis/StructureDefinition/hedis-observation"
          ]
        },
        "status": "final",
        "code": {
          "coding": [
            {
              "system": "http://loinc.org",
              "code": "2947-0",
              "display": "Sodium"
            }
          ]
        },
        "subject": {
          "reference": "Patient/Patient-6535",
          "display": "Barbara April Howe"
        },
        "context": {
          "reference": "Encounter/Encounter-1332",
          "display": "Wellness Visit"
        },
        "effectiveDateTime": "2002-07-19T00:00:00-04:00",
        "performer": [
          {
            "reference": "Practitioner/Practitioner-2532",
            "display": "Chad Espinoza Potter MD"
          }
        ],
        "valueQuantity": {
          "value": 138.6833079157769,
          "unit": "mmol/L"
        }
      },
      "request": {
        "method": "PUT",
        "url": "http://localhost:8080/cqf-ruler/baseDstu3/Observation/Observation-301572"
      }
    },
    {
      "fullUrl": "http://localhost:8080/cqf-ruler/baseDstu3/Observation/Observation-301573",
      "resource": {
        "resourceType": "Observation",
        "id": "Observation-301573",
        "meta": {
          "profile": [
            "http://hl7.org/fhir/us/hedis/StructureDefinition/hedis-observation"
          ]
        },
        "status": "final",
        "code": {
          "coding": [
            {
              "system": "http://loinc.org",
              "code": "6298-4",
              "display": "Potassium"
            }
          ]
        },
        "subject": {
          "reference": "Patient/Patient-6535",
          "display": "Barbara April Howe"
        },
        "context": {
          "reference": "Encounter/Encounter-1332",
          "display": "Wellness Visit"
        },
        "effectiveDateTime": "2002-07-19T00:00:00-04:00",
        "performer": [
          {
            "reference": "Practitioner/Practitioner-2532",
            "display": "Chad Espinoza Potter MD"
          }
        ],
        "valueQuantity": {
          "value": 5.031485529001484,
          "unit": "mmol/L"
        }
      },
      "request": {
        "method": "PUT",
        "url": "http://localhost:8080/cqf-ruler/baseDstu3/Observation/Observation-301573"
      }
    },
    {
      "fullUrl": "http://localhost:8080/cqf-ruler/baseDstu3/Observation/Observation-301574",
      "resource": {
        "resourceType": "Observation",
        "id": "Observation-301574",
        "meta": {
          "profile": [
            "http://hl7.org/fhir/us/hedis/StructureDefinition/hedis-observation"
          ]
        },
        "status": "final",
        "code": {
          "coding": [
            {
              "system": "http://loinc.org",
              "code": "2069-3",
              "display": "Chloride"
            }
          ]
        },
        "subject": {
          "reference": "Patient/Patient-6535",
          "display": "Barbara April Howe"
        },
        "context": {
          "reference": "Encounter/Encounter-1332",
          "display": "Wellness Visit"
        },
        "effectiveDateTime": "2002-07-19T00:00:00-04:00",
        "performer": [
          {
            "reference": "Practitioner/Practitioner-2532",
            "display": "Chad Espinoza Potter MD"
          }
        ],
        "valueQuantity": {
          "value": 108.98482133152537,
          "unit": "mmol/L"
        }
      },
      "request": {
        "method": "PUT",
        "url": "http://localhost:8080/cqf-ruler/baseDstu3/Observation/Observation-301574"
      }
    },
    {
      "fullUrl": "http://localhost:8080/cqf-ruler/baseDstu3/Observation/Observation-301575",
      "resource": {
        "resourceType": "Observation",
        "id": "Observation-301575",
        "meta": {
          "profile": [
            "http://hl7.org/fhir/us/hedis/StructureDefinition/hedis-observation"
          ]
        },
        "status": "final",
        "code": {
          "coding": [
            {
              "system": "http://loinc.org",
              "code": "20565-8",
              "display": "Carbon Dioxide"
            }
          ]
        },
        "subject": {
          "reference": "Patient/Patient-6535",
          "display": "Barbara April Howe"
        },
        "context": {
          "reference": "Encounter/Encounter-1332",
          "display": "Wellness Visit"
        },
        "effectiveDateTime": "2002-07-19T00:00:00-04:00",
        "performer": [
          {
            "reference": "Practitioner/Practitioner-2532",
            "display": "Chad Espinoza Potter MD"
          }
        ],
        "valueQuantity": {
          "value": 21.102561751810825,
          "unit": "mmol/L"
        }
      },
      "request": {
        "method": "PUT",
        "url": "http://localhost:8080/cqf-ruler/baseDstu3/Observation/Observation-301575"
      }
    },
    {
      "fullUrl": "http://localhost:8080/cqf-ruler/baseDstu3/DiagnosticReport/DiagnosticReport-301576",
      "resource": {
        "resourceType": "DiagnosticReport",
        "id": "DiagnosticReport-301576",
        "meta": {
          "profile": [
            "http://hl7.org/fhir/us/hedis/StructureDefinition/hedis-diagnosticreport"
          ]
        },
        "status": "final",
        "category": {
          "coding": [
            {
              "system": "http://hl7.org/fhir/ValueSet/diagnostic-service-sections",
              "code": "LAB",
              "display": "Laboratory"
            }
          ]
        },
        "code": {
          "coding": [
            {
              "system": "http://loinc.org",
              "code": "51990-0",
              "display": "Basic Metabolic Panel"
            }
          ]
        },
        "subject": {
          "reference": "Patient/Patient-6535",
          "display": "Barbara April Howe"
        },
        "context": {
          "reference": "Encounter/Encounter-1332",
          "display": "Wellness Visit"
        },
        "effectivePeriod": {
          "start": "2002-07-19T00:00:00-04:00",
          "end": "2002-07-19T00:00:00-04:00"
        },
        "issued": "2002-07-19T00:00:00.000-04:00",
        "result": [
          {
            "reference": "Observation/Observation-301568",
            "display": "Record_Glucose"
          },
          {
            "reference": "Observation/Observation-301569",
            "display": "Record_UreaNitrogen"
          },
          {
            "reference": "Observation/Observation-301570",
            "display": "Record_Creatinine"
          },
          {
            "reference": "Observation/Observation-301571",
            "display": "Record_Calcium"
          },
          {
            "reference": "Observation/Observation-301572",
            "display": "Record_Sodium"
          },
          {
            "reference": "Observation/Observation-301573",
            "display": "Record_Potassium"
          },
          {
            "reference": "Observation/Observation-301574",
            "display": "Record_Chloride"
          },
          {
            "reference": "Observation/Observation-301575",
            "display": "Record_CO2"
          }
        ]
      },
      "request": {
        "method": "PUT",
        "url": "http://localhost:8080/cqf-ruler/baseDstu3/DiagnosticReport/DiagnosticReport-301576"
      }
    },
    {
      "fullUrl": "http://localhost:8080/cqf-ruler/baseDstu3/Observation/Observation-301577",
      "resource": {
        "resourceType": "Observation",
        "id": "Observation-301577",
        "meta": {
          "profile": [
            "http://hl7.org/fhir/us/hedis/StructureDefinition/hedis-observation"
          ]
        },
        "status": "final",
        "code": {
          "coding": [
            {
              "system": "http://loinc.org",
              "code": "2093-3",
              "display": "Total Cholesterol"
            }
          ]
        },
        "subject": {
          "reference": "Patient/Patient-6535",
          "display": "Barbara April Howe"
        },
        "context": {
          "reference": "Encounter/Encounter-1332",
          "display": "Wellness Visit"
        },
        "effectiveDateTime": "2002-07-19T00:00:00-04:00",
        "performer": [
          {
            "reference": "Practitioner/Practitioner-2532",
            "display": "Chad Espinoza Potter MD"
          }
        ],
        "valueQuantity": {
          "value": 164.78064120130693,
          "unit": "mg/dL"
        }
      },
      "request": {
        "method": "PUT",
        "url": "http://localhost:8080/cqf-ruler/baseDstu3/Observation/Observation-301577"
      }
    },
    {
      "fullUrl": "http://localhost:8080/cqf-ruler/baseDstu3/Observation/Observation-301578",
      "resource": {
        "resourceType": "Observation",
        "id": "Observation-301578",
        "meta": {
          "profile": [
            "http://hl7.org/fhir/us/hedis/StructureDefinition/hedis-observation"
          ]
        },
        "status": "final",
        "code": {
          "coding": [
            {
              "system": "http://loinc.org",
              "code": "2571-8",
              "display": "Triglycerides"
            }
          ]
        },
        "subject": {
          "reference": "Patient/Patient-6535",
          "display": "Barbara April Howe"
        },
        "context": {
          "reference": "Encounter/Encounter-1332",
          "display": "Wellness Visit"
        },
        "effectiveDateTime": "2002-07-19T00:00:00-04:00",
        "performer": [
          {
            "reference": "Practitioner/Practitioner-2532",
            "display": "Chad Espinoza Potter MD"
          }
        ],
        "valueQuantity": {
          "value": 44.92019260131844,
          "unit": "mg/dL"
        }
      },
      "request": {
        "method": "PUT",
        "url": "http://localhost:8080/cqf-ruler/baseDstu3/Observation/Observation-301578"
      }
    },
    {
      "fullUrl": "http://localhost:8080/cqf-ruler/baseDstu3/Observation/Observation-301579",
      "resource": {
        "resourceType": "Observation",
        "id": "Observation-301579",
        "meta": {
          "profile": [
            "http://hl7.org/fhir/us/hedis/StructureDefinition/hedis-observation"
          ]
        },
        "status": "final",
        "code": {
          "coding": [
            {
              "system": "http://loinc.org",
              "code": "18262-6",
              "display": "Low Density Lipoprotein Cholesterol"
            }
          ]
        },
        "subject": {
          "reference": "Patient/Patient-6535",
          "display": "Barbara April Howe"
        },
        "context": {
          "reference": "Encounter/Encounter-1332",
          "display": "Wellness Visit"
        },
        "effectiveDateTime": "2002-07-19T00:00:00-04:00",
        "performer": [
          {
            "reference": "Practitioner/Practitioner-2532",
            "display": "Chad Espinoza Potter MD"
          }
        ],
        "valueQuantity": {
          "value": 109.50677862028655,
          "unit": "mg/dL"
        }
      },
      "request": {
        "method": "PUT",
        "url": "http://localhost:8080/cqf-ruler/baseDstu3/Observation/Observation-301579"
      }
    },
    {
      "fullUrl": "http://localhost:8080/cqf-ruler/baseDstu3/Observation/Observation-301580",
      "resource": {
        "resourceType": "Observation",
        "id": "Observation-301580",
        "meta": {
          "profile": [
            "http://hl7.org/fhir/us/hedis/StructureDefinition/hedis-observation"
          ]
        },
        "status": "final",
        "code": {
          "coding": [
            {
              "system": "http://loinc.org",
              "code": "2085-9",
              "display": "High Density Lipoprotein Cholesterol"
            }
          ]
        },
        "subject": {
          "reference": "Patient/Patient-6535",
          "display": "Barbara April Howe"
        },
        "context": {
          "reference": "Encounter/Encounter-1332",
          "display": "Wellness Visit"
        },
        "effectiveDateTime": "2002-07-19T00:00:00-04:00",
        "performer": [
          {
            "reference": "Practitioner/Practitioner-2532",
            "display": "Chad Espinoza Potter MD"
          }
        ],
        "valueQuantity": {
          "value": 46.28982406075671,
          "unit": "mg/dL"
        }
      },
      "request": {
        "method": "PUT",
        "url": "http://localhost:8080/cqf-ruler/baseDstu3/Observation/Observation-301580"
      }
    },
    {
      "fullUrl": "http://localhost:8080/cqf-ruler/baseDstu3/DiagnosticReport/DiagnosticReport-301581",
      "resource": {
        "resourceType": "DiagnosticReport",
        "id": "DiagnosticReport-301581",
        "meta": {
          "profile": [
            "http://hl7.org/fhir/us/hedis/StructureDefinition/hedis-diagnosticreport"
          ]
        },
        "status": "final",
        "category": {
          "coding": [
            {
              "system": "http://hl7.org/fhir/ValueSet/diagnostic-service-sections",
              "code": "LAB",
              "display": "Laboratory"
            }
          ]
        },
        "code": {
          "coding": [
            {
              "system": "http://loinc.org",
              "code": "57698-3",
              "display": "Lipid Panel"
            }
          ]
        },
        "subject": {
          "reference": "Patient/Patient-6535",
          "display": "Barbara April Howe"
        },
        "context": {
          "reference": "Encounter/Encounter-1332",
          "display": "Wellness Visit"
        },
        "effectivePeriod": {
          "start": "2002-07-19T00:00:00-04:00",
          "end": "2002-07-19T00:00:00-04:00"
        },
        "issued": "2002-07-19T00:00:00.000-04:00",
        "result": [
          {
            "reference": "Observation/Observation-301577",
            "display": "Record_Cholesterol"
          },
          {
            "reference": "Observation/Observation-301578",
            "display": "Record_Triglycerides"
          },
          {
            "reference": "Observation/Observation-301579",
            "display": "Record_LDL"
          },
          {
            "reference": "Observation/Observation-301580",
            "display": "Record_HDL"
          }
        ]
      },
      "request": {
        "method": "PUT",
        "url": "http://localhost:8080/cqf-ruler/baseDstu3/DiagnosticReport/DiagnosticReport-301581"
      }
    }
  ]
}