{
  "resourceType": "Bundle",
  "id": "Barbara-April-Howe-6535-Encounter-2072",
  "type": "transaction",
  "entry": [
    {
      "fullUrl": "http://localhost:8080/cqf-ruler/baseDstu3/Encounter/Encounter-2072",
      "resource": {
        "resourceType": "Encounter",
        "id": "Encounter-2072",
        "meta": {
          "profile": [
            "http://hl7.org/fhir/us/hedis/StructureDefinition/hedis-encounter"
          ]
        },
        "status": "finished",
        "class": {
          "system": "http://hl7.org/fhir/encounter-class",
          "code": "ambulatory",
          "display": "Ambulatory"
        },
        "type": [
          {
            "coding": [
              {
                "system": "http://snomed.info/sct",
                "code": "185345009",
                "display": "Encounter for symptom"
              }
            ]
          }
        ],
        "subject": {
          "reference": "Patient/Patient-6535",
          "display": "Barbara April Howe"
        },
        "participant": [
          {
            "period": {
              "start": "2008-09-16T13:00:00-04:00",
              "end": "2008-09-16T13:00:00-04:00"
            },
            "individual": {
              "reference": "Practitioner/Practitioner-2524",
              "display": "Willie Vincent Riddle MD"
            }
          }
        ],
        "period": {
          "start": "2008-09-16T13:00:00-04:00",
          "end": "2008-09-16T13:00:00-04:00"
        },
        "reason": [
          {
            "coding": [
              {
                "system": "http://snomed.info/sct",
                "code": "44054006",
                "display": "Type 2 diabetes mellitus"
              }
            ]
          }
        ],
        "location": [
          {
            "location": {
              "reference": "Location/Location-1001",
              "display": "Windward General Hospital"
            }
          }
        ],
        "serviceProvider": {
          "reference": "Organization/Organization-1001",
          "display": "Windward General Hospital"
        }
      },
      "request": {
        "method": "PUT",
        "url": "http://localhost:8080/cqf-ruler/baseDstu3/Encounter/Encounter-2072"
      }
    },
    {
      "fullUrl": "http://localhost:8080/cqf-ruler/baseDstu3/MedicationRequest/MedicationRequest-436393",
      "resource": {
        "resourceType": "MedicationRequest",
        "id": "MedicationRequest-436393",
        "meta": {
          "profile": [
            "http://hl7.org/fhir/us/hedis/StructureDefinition/hedis-medicationrequest"
          ]
        },
        "status": "active",
        "intent": "order",
        "medicationCodeableConcept": {
          "coding": [
            {
              "system": "http://www.nlm.nih.gov/research/umls/rxnorm",
              "code": "106892",
              "display": "insulin human, isophane 70 UNT/ML / Regular Insulin, Human 30 UNT/ML Injectable Suspension [Humulin]"
            }
          ]
        },
        "subject": {
          "reference": "Patient/Patient-6535",
          "display": "Barbara April Howe"
        },
        "context": {
          "reference": "Encounter/Encounter-2072",
          "display": "Followup_Visit"
        },
        "authoredOn": "2008-09-16T13:00:00-04:00",
        "reasonCode": [
          {
            "coding": [
              {
                "system": "http://snomed.info/sct",
                "code": "44054006",
                "display": "Type 2 diabetes mellitus"
              }
            ]
          }
        ],
        "dosageInstruction": [
          {
            "timing": {
              "repeat": {
                "frequency": 1
              }
            },
            "doseQuantity": {
              "value": 1
            }
          }
        ],
        "dispenseRequest": {
          "validityPeriod": {
            "start": "2008-09-16T13:00:00-04:00",
            "end": "2008-09-16T13:00:00-04:00"
          }
        }
      },
      "request": {
        "method": "PUT",
        "url": "http://localhost:8080/cqf-ruler/baseDstu3/MedicationRequest/MedicationRequest-436393"
      }
    },
    {
      "fullUrl": "http://localhost:8080/cqf-ruler/baseDstu3/MedicationRequest/MedicationRequest-436394",
      "resource": {
        "resourceType": "MedicationRequest",
        "id": "MedicationRequest-436394",
        "meta": {
          "profile": [
            "http://hl7.org/fhir/us/hedis/StructureDefinition/hedis-medicationrequest"
          ]
        },
        "status": "active",
        "intent": "order",
        "medicationCodeableConcept": {
          "coding": [
            {
              "system": "http://www.nlm.nih.gov/research/umls/rxnorm",
              "code": "897122",
              "display": "3 ML liraglutide 6 MG/ML Pen Injector"
            }
          ]
        },
        "subject": {
          "reference": "Patient/Patient-6535",
          "display": "Barbara April Howe"
        },
        "context": {
          "reference": "Encounter/Encounter-2072",
          "display": "Followup_Visit"
        },
        "authoredOn": "2008-09-16T13:00:00-04:00",
        "reasonCode": [
          {
            "coding": [
              {
                "system": "http://snomed.info/sct",
                "code": "44054006",
                "display": "Type 2 diabetes mellitus"
              }
            ]
          }
        ],
        "dispenseRequest": {
          "validityPeriod": {
            "start": "2008-09-16T13:00:00-04:00",
            "end": "2008-09-16T13:00:00-04:00"
          }
        }
      },
      "request": {
        "method": "PUT",
        "url": "http://localhost:8080/cqf-ruler/baseDstu3/MedicationRequest/MedicationRequest-436394"
      }
    },
    {
      "fullUrl": "http://localhost:8080/cqf-ruler/baseDstu3/Observation/Observation-436397",
      "resource": {
        "resourceType": "Observation",
        "id": "Observation-436397",
        "status": "final",
        "code": {
          "coding": [
            {
              "system": "http://loinc.org",
              "code": "8302-2",
              "display": "Height"
            }
          ]
        },
        "subject": {
          "reference": "Patient/Patient-6535",
          "display": "Barbara April Howe"
        },
        "context": {
          "reference": "Encounter/Encounter-2072",
          "display": "Followup_Visit"
        },
        "effectiveDateTime": "2008-09-16T13:00:00-04:00",
        "performer": [
          {
            "reference": "Practitioner/Practitioner-2524",
            "display": "Willie Vincent Riddle MD"
          }
        ],
        "valueQuantity": {
          "value": 163.3,
          "unit": "cm"
        }
      },
      "request": {
        "method": "PUT",
        "url": "http://localhost:8080/cqf-ruler/baseDstu3/Observation/Observation-436397"
      }
    },
    {
      "fullUrl": "http://localhost:8080/cqf-ruler/baseDstu3/Observation/Observation-436398",
      "resource": {
        "resourceType": "Observation",
        "id": "Observation-436398",
        "status": "final",
        "code": {
          "coding": [
            {
              "system": "http://loinc.org",
              "code": "29463-7",
              "display": "Weight"
            }
          ]
        },
        "subject": {
          "reference": "Patient/Patient-6535",
          "display": "Barbara April Howe"
        },
        "context": {
          "reference": "Encounter/Encounter-2072",
          "display": "Followup_Visit"
        },
        "effectiveDateTime": "2008-09-16T13:00:00-04:00",
        "performer": [
          {
            "reference": "Practitioner/Practitioner-2524",
            "display": "Willie Vincent Riddle MD"
          }
        ],
        "valueQuantity": {
          "value": 85.32059166268971,
          "unit": "kg"
        }
      },
      "request": {
        "method": "PUT",
        "url": "http://localhost:8080/cqf-ruler/baseDstu3/Observation/Observation-436398"
      }
    },
    {
      "fullUrl": "http://localhost:8080/cqf-ruler/baseDstu3/Observation/Observation-436399",
      "resource": {
        "resourceType": "Observation",
        "id": "Observation-436399",
        "status": "final",
        "code": {
          "coding": [
            {
              "system": "http://loinc.org",
              "code": "39156-5",
              "display": "BMI"
            }
          ]
        },
        "subject": {
          "reference": "Patient/Patient-6535",
          "display": "Barbara April Howe"
        },
        "context": {
          "reference": "Encounter/Encounter-2072",
          "display": "Followup_Visit"
        },
        "effectiveDateTime": "2008-09-16T13:00:00-04:00",
        "performer": [
          {
            "reference": "Practitioner/Practitioner-2524",
            "display": "Willie Vincent Riddle MD"
          }
        ],
        "valueQuantity": {
          "value": 31.994953915769596,
          "unit": "kg/m2"
        }
      },
      "request": {
        "method": "PUT",
        "url": "http://localhost:8080/cqf-ruler/baseDstu3/Observation/Observation-436399"
      }
    },
    {
      "fullUrl": "http://localhost:8080/cqf-ruler/baseDstu3/Observation/Observation-436400",
      "resource": {
        "resourceType": "Observation",
        "id": "Observation-436400",
        "status": "final",
        "code": {
          "coding": [
            {
              "system": "http://loinc.org",
              "code": "8310-5",
              "display": "Temperature"
            }
          ]
        },
        "subject": {
          "reference": "Patient/Patient-6535",
          "display": "Barbara April Howe"
        },
        "context": {
          "reference": "Encounter/Encounter-2072",
          "display": "Followup_Visit"
        },
        "effectiveDateTime": "2008-09-16T13:00:00-04:00",
        "performer": [
          {
            "reference": "Practitioner/Practitioner-2524",
            "display": "Willie Vincent Riddle MD"
          }
        ],
        "valueQuantity": {
          "value": 37.0,
          "unit": "C"
        }
      },
      "request": {
        "method": "PUT",
        "url": "http://localhost:8080/cqf-ruler/baseDstu3/Observation/Observation-436400"
      }
    },
    {
      "fullUrl": "http://localhost:8080/cqf-ruler/baseDstu3/Observation/Observation-436401",
      "resource": {
        "resourceType": "Observation",
        "id": "Observation-436401",
        "status": "final",
        "code": {
          "coding": [
            {
              "system": "http://loinc.org",
              "code": "8459-0",
              "display": "Systolic Blood Pressure"
            }
          ]
        },
        "subject": {
          "reference": "Patient/Patient-6535",
          "display": "Barbara April Howe"
        },
        "context": {
          "reference": "Encounter/Encounter-2072",
          "display": "Followup_Visit"
        },
        "effectiveDateTime": "2008-09-16T13:00:00-04:00",
        "performer": [
          {
            "reference": "Practitioner/Practitioner-2524",
            "display": "Willie Vincent Riddle MD"
          }
        ],
        "valueQuantity": {
          "value": 101.51415991639077,
          "unit": "mmHg"
        }
      },
      "request": {
        "method": "PUT",
        "url": "http://localhost:8080/cqf-ruler/baseDstu3/Observation/Observation-436401"
      }
    },
    {
      "fullUrl": "http://localhost:8080/cqf-ruler/baseDstu3/Observation/Observation-436402",
      "resource": {
        "resourceType": "Observation",
        "id": "Observation-436402",
        "status": "final",
        "code": {
          "coding": [
            {
              "system": "http://loinc.org",
              "code": "8453-3",
              "display": "Diastolic Blood Pressure"
            }
          ]
        },
        "subject": {
          "reference": "Patient/Patient-6535",
          "display": "Barbara April Howe"
        },
        "context": {
          "reference": "Encounter/Encounter-2072",
          "display": "Followup_Visit"
        },
        "effectiveDateTime": "2008-09-16T13:00:00-04:00",
        "performer": [
          {
            "reference": "Practitioner/Practitioner-2524",
            "display": "Willie Vincent Riddle MD"
          }
        ],
        "valueQuantity": {
          "value": 89.89112387359215,
          "unit": "mmHg"
        }
      },
      "request": {
        "method": "PUT",
        "url": "http://localhost:8080/cqf-ruler/baseDstu3/Observation/Observation-436402"
      }
    },
    {
      "fullUrl": "http://localhost:8080/cqf-ruler/baseDstu3/DiagnosticReport/DiagnosticReport-436396",
      "resource": {
        "resourceType": "DiagnosticReport",
        "id": "DiagnosticReport-436396",
        "meta": {
          "profile": [
            "http://hl7.org/fhir/us/hedis/StructureDefinition/hedis-diagnosticreport"
          ]
        },
        "status": "final",
        "category": {
          "coding": [
            {
              "system": "http://hl7.org/fhir/ValueSet/diagnostic-service-sections",
              "code": "LAB",
              "display": "Laboratory"
            }
          ]
        },
        "code": {
          "coding": [
            {
              "system": "http://loinc.org",
              "code": "8716-3",
              "display": "Vital Signs Panel"
            }
          ]
        },
        "subject": {
          "reference": "Patient/Patient-6535",
          "display": "Barbara April Howe"
        },
        "context": {
          "reference": "Encounter/Encounter-2072",
          "display": "Followup_Visit"
        },
        "effectivePeriod": {
          "start": "2008-09-16T13:00:00-04:00",
          "end": "2008-09-16T13:00:00-04:00"
        },
        "issued": "2008-09-16T13:00:00.000-04:00",
        "result": [
          {
            "reference": "Observation/Observation-436397",
            "display": "Height"
          },
          {
            "reference": "Observation/Observation-436398",
            "display": "Weight"
          },
          {
            "reference": "Observation/Observation-436399",
            "display": "BMI"
          },
          {
            "reference": "Observation/Observation-436400",
            "display": "Temperature"
          },
          {
            "reference": "Observation/Observation-436401",
            "display": "Systolic Blood Pressure"
          },
          {
            "reference": "Observation/Observation-436402",
            "display": "Diastolic Blood Pressure"
          }
        ]
      },
      "request": {
        "method": "PUT",
        "url": "http://localhost:8080/cqf-ruler/baseDstu3/DiagnosticReport/DiagnosticReport-436396"
      }
    }
  ]
}