{
  "resourceType": "Bundle",
  "id": "load-patient-12235",
  "meta": {
    "versionId": "1",
    "lastUpdated": "2016-09-16T15:03:22.128+00:00"
  },
  "type": "transaction",
  "entry": [
    {
      "fullUrl": "http://localhost:8080/fhir/baseDstu3/Patient/Patient-12235",
      "resource": {
        "resourceType": "Patient",
        "id": "Patient-12235",
        "identifier": [
          {
            "use": "official",
            "type": {
              "coding": [
                {
                  "system": "http://hl7.org/fhir/STU3/identifier-type",
                  "code": "SB",
                  "display": "Social Beneficiary Identifier"
                }
              ],
              "text": "Michigan Common Key Service Identifier"
            },
            "system": "http://mihin.org/fhir/cks",
            "value": "14a18053bac8404d9787d05e192034bb"
          }
        ],
        "active": true,
        "name": [
          {
            "family": [
              "N CA Male"
            ],
            "given": [
              "4 N"
            ]
          }
        ],
        "telecom": [
          {
            "system": "phone",
            "value": "989-555-1883",
            "use": "home"
          },
          {
            "system": "phone",
            "value": "989-555-6164",
            "use": "work"
          },
          {
            "extension": [
              {
                "url": "http://hl7.org/fhir/us/core/StructureDefinition/us-core-direct",
                "valueBoolean": true
              }
            ],
            "system": "email",
            "value": "name@email.com",
            "use": "home"
          }
        ],
        "gender": "male",
        "birthDate": "1948-02-11",
        "address": [
          {
            "line": [
              "202 Burlington Rd."
            ],
            "city": "Bedford",
            "state": "MA",
            "postalCode": "01730"
          }
        ]
      },
      "request": {
        "method": "PUT",
        "url": "http://localhost:8080/fhir/baseDstu3/Patient/Patient-12235"
      }
    },
    {
      "fullUrl": "http://localhost:8080/fhir/baseDstu3/Practitioner/Practitioner-12226",
      "resource": {
        "resourceType": "Practitioner",
        "id": "Practitioner-12226",
        "identifier": [
          {
            "use": "official",
            "type": {
              "coding": [
                {
                  "system": "http://hl7.org/fhir/STU3/identifier-type",
                  "code": "SB",
                  "display": "Social Beneficiary Identifier"
                }
              ],
              "text": "US Social Security Number"
            },
            "system": "http://hl7.org/fhir/sid/us-ssn",
            "value": "000012226"
          },
          {
            "use": "official",
            "type": {
              "coding": [
                {
                  "system": "http://hl7.org/fhir/v2/0203",
                  "code": "PRN",
                  "display": "Provider number"
                }
              ],
              "text": "US National Provider Identifier"
            },
            "system": "http://hl7.org/fhir/sid/us-npi",
            "value": "9999912226"
          },
          {
            "use": "official",
            "type": {
              "coding": [
                {
                  "system": "http://hl7.org/fhir/STU3/identifier-type",
                  "code": "SB",
                  "display": "Social Beneficiary Identifier"
                }
              ],
              "text": "Michigan Common Key Service Identifier"
            },
            "system": "http://mihin.org/fhir/cks",
            "value": "3daa2d44ef64482e90c1db25376fb7e8"
          }
        ],
        "name": [
          {
            "family": [
              "Leonard"
            ],
            "given": [
              "Christine",
              "Sherry"
            ],
            "suffix": [
              "MD"
            ]
          }
        ],
        "telecom": [
          {
            "system": "phone",
            "value": "734-555-1731",
            "use": "home"
          },
          {
            "system": "phone",
            "value": "734-555-6255",
            "use": "work"
          }
        ],
        "address": [
          {
            "line": [
              "591 E Colorado Street"
            ],
            "city": "Rockwood",
            "state": "MI",
            "postalCode": "48173"
          }
        ],
        "gender": "female",
        "birthDate": "1972-09-17",
        "qualification": [
          {
            "identifier": [
              {
                "use": "official",
                "type": {
                  "coding": [
                    {
                      "system": "http://hl7.org/fhir/v2/0203",
                      "code": "MD",
                      "display": "Medical License number"
                    }
                  ],
                  "text": "Michigan Medical License"
                },
                "system": "http://michigan.gov/fhir/medical-license",
                "value": "LARA-12226",
                "assigner": {
                  "display": "State of Michigan"
                }
              }
            ],
            "code": {
              "coding": [
                {
                  "system": "http://michigan.gov/lara/license-type",
                  "code": "4305",
                  "display": "Medical Doctor"
                }
              ]
            },
            "issuer": {
              "reference": "Organization/organization-2000",
              "display": "Michigan Department of Licensing and Regulatory Affairs"
            }
          }
        ]
      },
      "request": {
        "method": "PUT",
        "url": "http://localhost:8080/fhir/baseDstu3/Practitioner/Practitioner-12226"
      }
    },
    {
      "fullUrl": "http://localhost:8080/fhir/baseDstu3/Organization/organization-2002",
      "resource": {
        "resourceType": "Organization",
        "id": "Organization-2002",
        "extension": [
          {
            "url": "http://org.mihin.fhir.extension.organization-license",
            "valueIdentifier": {
              "use": "official",
              "type": {
                "coding": [
                  {
                    "system": "http://gov.michigan.fhir.organization-license-type",
                    "code": "PRACTICE"
                  }
                ],
                "text": "Michigan Medical Practice License"
              },
              "system": "http://gov.michigan.fhir.organization-license",
              "value": "LARA-ORG-2002",
              "assigner": {
                "display": "State of Michigan"
              }
            }
          },
          {
            "url": "http://gov.onc.fhir.extension.taxonomy",
            "valueCodeableConcept": {
              "coding": [
                {
                  "system": "http://org.nucc.taxonomy",
                  "code": "261Q00000X",
                  "display": "Clinic/Center"
                }
              ]
            }
          },
          {
            "url": "http://org.mihin.fhir.extension.electronic-service",
            "valueReference": {
              "reference": "ElectronicService/ElectronicService-50",
              "display": "orgname@email.com"
            }
          }
        ],
        "identifier": [
          {
            "use": "official",
            "system": "http://www.hl7.org/oid/",
            "value": "1.2.3.4.5.9.99.999.9999.2002"
          },
          {
            "use": "official",
            "type": {
              "coding": [
                {
                  "system": "http://hl7.org/fhir/v2/0203",
                  "code": "PRN",
                  "display": "Provider number"
                }
              ],
              "text": "US National Provider Identifier"
            },
            "system": "http://hl7.org/fhir/sid/us-npi",
            "value": "9999992002"
          }
        ],
        "active": true,
        "type": {
          "text": "Clinic/Center"
        },
        "name": "Sun Hill Physicians",
        "telecom": [
          {
            "system": "phone",
            "value": "231-555-9381",
            "use": "work"
          }
        ],
        "address": [
          {
            "line": [
              "261 Ninth Street"
            ],
            "city": "Bitely",
            "state": "MI",
            "postalCode": "49309"
          }
        ]
      },
      "request": {
        "method": "PUT",
        "url": "http://localhost:8080/fhir/baseDstu3/Organization/organization-2002"
      }
    },
    {
      "fullUrl": "http://localhost:8080/fhir/baseDstu3/Encounter/Encounter-51",
      "resource": {
        "resourceType": "Encounter",
        "id": "Encounter-51",
        "extension": [
          {
            "url": "http://mihin.org/fhir/templateId",
            "valueString": "2.16.840.1.113883.10.20.22.4.49"
          },
          {
            "url": "http://mihin.org/fhir/templateId",
            "valueString": "2.16.840.1.113883.10.20.24.3.23"
          }
        ],
        "status": "finished",
        "class": {
          "system": "http://hl7.org/fhir/ValueSet/v3-ActEncounterCode",
          "code": "AMB"
        },
        "type": [
          {
            "coding": [
              {
                "system": "http://www.ama-assn.org/go/cpt",
                "code": "99203"
              }
            ],
            "text": "Encounter, Performed: Office Visit"
          }
        ],
        "subject": {
          "reference": "Patient/Patient-12235",
          "display": "4 N  N CA Male"
        },
        "participant": [
          {
            "individual": {
              "reference": "Practitioner/Practitioner-12226",
              "display": "Christine Sherry Leonard MD"
            }
          }
        ],
        "period": {
          "start": "2015-07-13T08:00:00-04:00",
          "end": "2015-07-13T09:00:00-04:00"
        },
        "serviceProvider": {
          "reference": "Organization/organization-2002",
          "display": "Sun Hill Physicians"
        }
      },
      "request": {
        "method": "PUT",
        "url": "http://localhost:8080/fhir/baseDstu3/Encounter/Encounter-51"
      }
    },
    {
      "fullUrl": "http://localhost:8080/fhir/baseDstu3/Encounter/Encounter-52",
      "resource": {
        "resourceType": "Encounter",
        "id": "Encounter-52",
        "extension": [
          {
            "url": "http://mihin.org/fhir/templateId",
            "valueString": "2.16.840.1.113883.10.20.22.4.49"
          },
          {
            "url": "http://mihin.org/fhir/templateId",
            "valueString": "2.16.840.1.113883.10.20.24.3.23"
          }
        ],
        "status": "finished",
        "class": {
          "system": "http://hl7.org/fhir/ValueSet/v3-ActEncounterCode",
          "code": "AMB"
        },
        "type": [
          {
            "coding": [
              {
                "system": "http://www.ama-assn.org/go/cpt",
                "code": "99213"
              }
            ],
            "text": "Encounter, Performed: Office Visit"
          }
        ],
        "subject": {
          "reference": "Patient/Patient-12235",
          "display": "4 N  N CA Male"
        },
        "participant": [
          {
            "individual": {
              "reference": "Practitioner/Practitioner-12226",
              "display": "Christine Sherry Leonard MD"
            }
          }
        ],
        "period": {
          "start": "2015-07-23T08:00:00-04:00",
          "end": "2015-07-23T09:00:00-04:00"
        },
        "serviceProvider": {
          "reference": "Organization/organization-2002",
          "display": "Sun Hill Physicians"
        }
      },
      "request": {
        "method": "PUT",
        "url": "http://localhost:8080/fhir/baseDstu3/Encounter/Encounter-52"
      }
    },
    {
      "fullUrl": "http://localhost:8080/fhir/baseDstu3/Coverage/Coverage-53",
      "resource": {
        "resourceType": "Coverage",
        "id": "Coverage-53",
        "extension": [
          {
            "url": "http://mihin.org/fhir/templateId",
            "valueString": "2.16.840.1.113883.10.20.24.3.55"
          }
        ],
        "identifier": [
          {
            "system": "http://hl7.org/fhir/identifier",
            "value": "1.3.6.1.4.1.115:579f4eb5aeac500a550c5d64"
          }
        ],
        "status": "active",
        "type": {
          "system": "2.16.840.1.113883.3.221.5",
          "code": "349"
        },
        "policyHolder": {
          "reference": "Patient/Patient-12235",
          "display": "4 N  N CA Male"
        },
        "beneficiary": {
          "reference": "Patient/Patient-12235",
          "display": "4 N  N CA Male"
        },
        "relationship": {
          "system": "http://hl7.org/fhir/policyholder-relationship",
          "code": "self"
        },
        "period": {
          "start": "2008-01-01T05:00:00-05:00"
        },
        "payor": [
          {
            "reference": "Organization/organization-2002",
            "display": "Sun Hill Physicians"
          }
        ]
      },
      "request": {
        "method": "PUT",
        "url": "http://localhost:8080/fhir/baseDstu3/Coverage/Coverage-53"
      }
    },
    {
      "fullUrl": "http://localhost:8080/fhir/baseDstu3/Observation/Observation-54",
      "resource": {
        "resourceType": "Observation",
        "id": "Observation-54",
        "extension": [
          {
            "url": "http://mihin.org/fhir/templateId",
            "valueString": "2.16.840.1.113883.10.20.24.3.51"
          }
        ],
        "identifier": [
          {
            "system": "http://hl7.org/fhir/identifier",
            "value": "2f8db160-409f-0134-1c28-20999b0ed66f:"
          }
        ],
        "status": "final",
        "code": {
          "coding": [
            {
              "system": "urn:oid:2.16.840.1.113883.5.4",
              "code": "ASSERTION"
            }
          ]
        },
        "subject": {
          "reference": "Patient/Patient-12235",
          "display": "4 N  N CA Male"
        },
        "issued": "2015-07-13T08:30:00-04:00",
        "performer": [
          {
            "reference": "Practitioner/Practitioner-12226",
            "display": "Christine Sherry Leonard MD"
          }
        ]
      },
      "request": {
        "method": "PUT",
        "url": "http://localhost:8080/fhir/baseDstu3/Observation/Observation-54"
      }
    },
    {
      "fullUrl": "http://localhost:8080/fhir/baseDstu3/Procedure/Procedure-55",
      "resource": {
        "resourceType": "Procedure",
        "id": "Procedure-55",
        "extension": [
          {
            "url": "http://mihin.org/fhir/templateId",
            "valueString": "2.16.840.1.113883.10.20.24.3.64"
          },
          {
            "url": "http://mihin.org/fhir/templateId",
            "valueString": "2.16.840.1.113883.10.20.22.4.14"
          }
        ],
        "identifier": [
          {
            "system": "http://hl7.org/fhir/identifier",
            "value": "1.3.6.1.4.1.115:579f4eb5aeac500a550c5d60"
          }
        ],
        "subject": {
          "reference": "Patient/Patient-12235",
          "display": "4 N  N CA Male"
        },
        "status": "completed",
        "category": {
          "coding": [
            {
              "system": "http://snomed.info/sct",
              "code": "387713003",
              "display": "Surgical Procedure"
            }
          ]
        },
        "code": {
          "coding": [
            {
              "system": "http://snomed.info/sct",
              "code": "116783008"
            }
          ],
          "text": "Procedure, Performed: Pathology Evaluation"
        },
        "performedPeriod": {
          "start": "2015-07-13T08:15:00-04:00",
          "end": "2015-07-13T08:15:00-04:00"
        },
        "performer": [
          {
            "actor": {
              "reference": "Practitioner/Practitioner-12226",
              "display": "Christine Sherry Leonard MD"
            },
            "role": {
              "coding": [
                {
                  "system": "http://hl7.org/fhir/ValueSet/performer-role",
                  "code": "112247003",
                  "display": "Medical doctor"
                }
              ]
            }
          }
        ]
      },
      "request": {
        "method": "PUT",
        "url": "http://localhost:8080/fhir/baseDstu3/Procedure/Procedure-55"
      }
    },
    {
      "fullUrl": "http://localhost:8080/fhir/baseDstu3/Procedure/Procedure-56",
      "resource": {
        "resourceType": "Procedure",
        "id": "Procedure-56",
        "extension": [
          {
            "url": "http://mihin.org/fhir/templateId",
            "valueString": "2.16.840.1.113883.10.20.24.3.64"
          },
          {
            "url": "http://mihin.org/fhir/templateId",
            "valueString": "2.16.840.1.113883.10.20.22.4.14"
          }
        ],
        "identifier": [
          {
            "system": "http://hl7.org/fhir/identifier",
            "value": "1.3.6.1.4.1.115:579f4eb5aeac500a550c5d60"
          }
        ],
        "subject": {
          "reference": "Patient/Patient-12235",
          "display": "4 N  N CA Male"
        },
        "status": "completed",
        "category": {
          "coding": [
            {
              "system": "http://snomed.info/sct",
              "code": "387713003",
              "display": "Surgical Procedure"
            }
          ]
        },
        "code": {
          "coding": [
            {
              "system": "http://snomed.info/sct",
              "code": "174158000"
            }
          ],
          "text": "Procedure, Performed: Colonoscopy"
        },
        "performedPeriod": {
          "start": "2011-07-13T08:15:00-04:00",
          "end": "2011-07-13T08:15:00-04:00"
        },
        "performer": [
          {
            "actor": {
              "reference": "Practitioner/Practitioner-12226",
              "display": "Christine Sherry Leonard MD"
            },
            "role": {
              "coding": [
                {
                  "system": "http://hl7.org/fhir/ValueSet/performer-role",
                  "code": "112247003",
                  "display": "Medical doctor"
                }
              ]
            }
          }
        ]
      },
      "request": {
        "method": "PUT",
        "url": "http://localhost:8080/fhir/baseDstu3/Procedure/Procedure-56"
      }
    },
    {
      "fullUrl": "http://localhost:8080/fhir/baseDstu3/Procedure/Procedure-57",
      "resource": {
        "resourceType": "Procedure",
        "id": "Procedure-57",
        "extension": [
          {
            "url": "http://mihin.org/fhir/templateId",
            "valueString": "2.16.840.1.113883.10.20.24.3.64"
          },
          {
            "url": "http://mihin.org/fhir/templateId",
            "valueString": "2.16.840.1.113883.10.20.22.4.14"
          }
        ],
        "identifier": [
          {
            "system": "http://hl7.org/fhir/identifier",
            "value": "1.3.6.1.4.1.115:579f4eb5aeac500a550c5d60"
          }
        ],
        "subject": {
          "reference": "Patient/Patient-12235",
          "display": "4 N  N CA Male"
        },
        "status": "completed",
        "category": {
          "coding": [
            {
              "system": "http://snomed.info/sct",
              "code": "387713003",
              "display": "Surgical Procedure"
            }
          ]
        },
        "code": {
          "coding": [
            {
              "system": "http://snomed.info/sct",
              "code": "396226005"
            }
          ],
          "text": "Procedure, Performed: Flexible Sigmoidoscopy"
        },
        "performedPeriod": {
          "start": "2014-07-13T08:15:00-04:00",
          "end": "2014-07-13T08:15:00-04:00"
        },
        "performer": [
          {
            "actor": {
              "reference": "Practitioner/Practitioner-12226",
              "display": "Christine Sherry Leonard MD"
            },
            "role": {
              "coding": [
                {
                  "system": "http://hl7.org/fhir/ValueSet/performer-role",
                  "code": "112247003",
                  "display": "Medical doctor"
                }
              ]
            }
          }
        ]
      },
      "request": {
        "method": "PUT",
        "url": "http://localhost:8080/fhir/baseDstu3/Procedure/Procedure-57"
      }
    },
    {
      "fullUrl": "http://localhost:8080/fhir/baseDstu3/AllergyIntolerance/AllergyIntolerance-58",
      "resource": {
        "resourceType": "AllergyIntolerance",
        "id": "AllergyIntolerance-58",
        "extension": [
          {
            "url": "http://mihin.org/fhir/templateId",
            "valueString": "2.16.840.1.113883.10.20.22.4.7"
          },
          {
            "url": "http://mihin.org/fhir/templateId",
            "valueString": "2.16.840.1.113883.10.20.24.3.46"
          }
        ],
        "identifier": [
          {
            "system": "http://hl7.org/fhir/identifier",
            "value": "1.3.6.1.4.1.115:579f4eb5aeac500a550c5d53"
          }
        ],
        "type": "intolerance",
        "category": "medication",
        "patient": {
          "reference": "Patient/Patient-12235",
          "display": "4 N  N CA Male"
        },
        "assertedDate": "2015-07-23T08:15:00-04:00",
        "recorder": {
          "reference": "Practitioner/Practitioner-12226",
          "display": "Christine Sherry Leonard MD"
        },
        "reaction": [
          {
            "substance": {
              "coding": [
                {
                  "system": "http://snomed.info/sct",
                  "code": "59037007",
                  "display": "Drug intolerance"
                }
              ],
              "text": "Drug intolerance"
            },
            "manifestation": [
              {
                "coding": [
                  {
                    "system": "http://snomed.info/sct",
                    "code": "247472004",
                    "display": "Hives"
                  }
                ]
              }
            ]
          }
        ]
      },
      "request": {
        "method": "PUT",
        "url": "http://localhost:8080/fhir/baseDstu3/AllergyIntolerance/AllergyIntolerance-58"
      }
    },
    {
      "fullUrl": "http://localhost:8080/fhir/baseDstu3/AllergyIntolerance/AllergyIntolerance-59",
      "resource": {
        "resourceType": "AllergyIntolerance",
        "id": "AllergyIntolerance-59",
        "extension": [
          {
            "url": "http://mihin.org/fhir/templateId",
            "valueString": "2.16.840.1.113883.10.20.22.4.7"
          },
          {
            "url": "http://mihin.org/fhir/templateId",
            "valueString": "2.16.840.1.113883.10.20.24.3.46"
          }
        ],
        "identifier": [
          {
            "system": "http://hl7.org/fhir/identifier",
            "value": "1.3.6.1.4.1.115:579f4eb5aeac500a550c5d54"
          }
        ],
        "type": "intolerance",
        "category": "medication",
        "patient": {
          "reference": "Patient/Patient-12235",
          "display": "4 N  N CA Male"
        },
        "assertedDate": "2015-07-23T08:15:00-04:00",
        "recorder": {
          "reference": "Practitioner/Practitioner-12226",
          "display": "Christine Sherry Leonard MD"
        },
        "reaction": [
          {
            "substance": {
              "coding": [
                {
                  "system": "http://snomed.info/sct",
                  "code": "59037007",
                  "display": "Drug intolerance"
                }
              ],
              "text": "Drug intolerance"
            },
            "manifestation": [
              {
                "coding": [
                  {
                    "system": "http://snomed.info/sct",
                    "code": "247472004",
                    "display": "Hives"
                  }
                ]
              }
            ]
          }
        ]
      },
      "request": {
        "method": "PUT",
        "url": "http://localhost:8080/fhir/baseDstu3/AllergyIntolerance/AllergyIntolerance-59"
      }
    },
    {
      "fullUrl": "http://localhost:8080/fhir/baseDstu3/AllergyIntolerance/AllergyIntolerance-60",
      "resource": {
        "resourceType": "AllergyIntolerance",
        "id": "AllergyIntolerance-60",
        "extension": [
          {
            "url": "http://mihin.org/fhir/templateId",
            "valueString": "2.16.840.1.113883.10.20.22.4.7"
          },
          {
            "url": "http://mihin.org/fhir/templateId",
            "valueString": "2.16.840.1.113883.10.20.24.3.46"
          }
        ],
        "identifier": [
          {
            "system": "http://hl7.org/fhir/identifier",
            "value": "1.3.6.1.4.1.115:579f4eb5aeac500a550c5d55"
          }
        ],
        "type": "intolerance",
        "category": "medication",
        "patient": {
          "reference": "Patient/Patient-12235",
          "display": "4 N  N CA Male"
        },
        "assertedDate": "2015-07-23T08:15:00-04:00",
        "recorder": {
          "reference": "Practitioner/Practitioner-12226",
          "display": "Christine Sherry Leonard MD"
        },
        "reaction": [
          {
            "substance": {
              "coding": [
                {
                  "system": "http://snomed.info/sct",
                  "code": "59037007",
                  "display": "Drug intolerance"
                }
              ],
              "text": "Drug intolerance"
            },
            "manifestation": [
              {
                "coding": [
                  {
                    "system": "http://snomed.info/sct",
                    "code": "247472004",
                    "display": "Hives"
                  }
                ]
              }
            ]
          }
        ]
      },
      "request": {
        "method": "PUT",
        "url": "http://localhost:8080/fhir/baseDstu3/AllergyIntolerance/AllergyIntolerance-60"
      }
    },
    {
      "fullUrl": "http://localhost:8080/fhir/baseDstu3/AllergyIntolerance/AllergyIntolerance-61",
      "resource": {
        "resourceType": "AllergyIntolerance",
        "id": "AllergyIntolerance-61",
        "extension": [
          {
            "url": "http://mihin.org/fhir/templateId",
            "valueString": "2.16.840.1.113883.10.20.22.4.7"
          },
          {
            "url": "http://mihin.org/fhir/templateId",
            "valueString": "2.16.840.1.113883.10.20.24.3.46"
          }
        ],
        "identifier": [
          {
            "system": "http://hl7.org/fhir/identifier",
            "value": "1.3.6.1.4.1.115:579f4eb5aeac500a550c5d56"
          }
        ],
        "type": "intolerance",
        "category": "medication",
        "patient": {
          "reference": "Patient/Patient-12235",
          "display": "4 N  N CA Male"
        },
        "assertedDate": "2015-07-23T08:15:00-04:00",
        "recorder": {
          "reference": "Practitioner/Practitioner-12226",
          "display": "Christine Sherry Leonard MD"
        },
        "reaction": [
          {
            "substance": {
              "coding": [
                {
                  "system": "http://snomed.info/sct",
                  "code": "59037007",
                  "display": "Drug intolerance"
                }
              ],
              "text": "Drug intolerance"
            },
            "manifestation": [
              {
                "coding": [
                  {
                    "system": "http://snomed.info/sct",
                    "code": "247472004",
                    "display": "Hives"
                  }
                ]
              }
            ]
          }
        ]
      },
      "request": {
        "method": "PUT",
        "url": "http://localhost:8080/fhir/baseDstu3/AllergyIntolerance/AllergyIntolerance-61"
      }
    },
    {
      "fullUrl": "http://localhost:8080/fhir/baseDstu3/Condition/Condition-62",
      "resource": {
        "resourceType": "Condition",
        "id": "Condition-62",
        "extension": [
          {
            "url": "http://mihin.org/fhir/templateId",
            "valueString": "2.16.840.1.113883.10.20.22.4.3"
          },
          {
            "url": "http://mihin.org/fhir/templateId",
            "valueString": "2.16.840.1.113883.10.20.24.3.137"
          }
        ],
        "clinicalStatus": "active",
        "verificationStatus": "confirmed",
        "category": {
          "coding": [
            {
              "system": "http://hl7.org/fhir/condition-category",
              "code": "diagnosis",
              "display": "Diagnosis"
            }
          ],
          "text": "This is a judgment made by a healthcare provider that the patient has a particular disease or condition"
        },
        "code": {
          "coding": [
            {
              "system": "http://snomed.info/sct",
              "code": "292196008"
            }
          ],
          "text": "Diagnosis: Intolerance To Antineoplastic Therapy"
        },
        "subject": {
          "reference": "Patient/Patient-12235",
          "display": "4 N  N CA Male"
        },
        "asserter": {
          "reference": "Practitioner/Practitioner-12226",
          "display": "Christine Sherry Leonard MD"
        }
      },
      "request": {
        "method": "PUT",
        "url": "http://localhost:8080/fhir/baseDstu3/Condition/Condition-62"
      }
    }
  ]
}