{
  "resourceType": "Bundle",
  "id": "load-patient-12235",
  "meta": {
    "versionId": "1",
    "lastUpdated": "2016-09-16T15:03:22.128+00:00"
  },
  "type": "transaction",
  "entry": [
    {
      "fullUrl": "http://localhost:8080/fhir/baseDstu3/Patient/patient-12235",
      "resource": {
        "resourceType": "Patient",
        "id": "patient-12235",
        "identifier": [
          {
            "use": "official",
            "type": {
              "coding": [
                {
                  "system": "http://hl7.org/fhir/identifier-type",
                  "code": "SB",
                  "display": "Social Beneficiary Identifier"
                }
              ],
              "text": "Michigan Common Key Service Identifier"
            },
            "system": "http://mihin.org/fhir/cks",
            "value": "14a18053bac8404d9787d05e192034bb"
          }
        ],
        "active": true,
        "name": [
          {
            "family": "N CA Male",
            "given": [
              "4 N"
            ]
          }
        ],
        "telecom": [
          {
            "system": "phone",
            "value": "989-555-1883",
            "use": "home"
          },
          {
            "system": "phone",
            "value": "989-555-6164",
            "use": "work"
          },
          {
            "extension": [
              {
                "url": "http://hl7.org/fhir/us/core/StructureDefinition/us-core-direct",
                "valueBoolean": true
              }
            ],
            "system": "email",
            "value": "name@email.com",
            "use": "home"
          }
        ],
        "gender": "male",
        "birthDate": "1948-02-11",
        "address": [
          {
            "line": [
              "202 Burlington Rd."
            ],
            "city": "Bedford",
            "state": "MA",
            "postalCode": "01730"
          }
        ]
      },
      "request": {
        "method": "PUT",
        "url": "http://localhost:8080/fhir/baseDstu3/Patient/patient-12235"
      }
    },
    {
      "fullUrl": "http://localhost:8080/fhir/baseDstu3/Practitioner/practitioner-12226",
      "resource": {
        "resourceType": "Practitioner",
        "id": "practitioner-12226",
        "identifier": [
          {
            "use": "official",
            "type": {
              "coding": [
                {
                  "system": "http://hl7.org/fhir/identifier-type",
                  "code": "SB",
                  "display": "Social Beneficiary Identifier"
                }
              ],
              "text": "US Social Security Number"
            },
            "system": "http://hl7.org/fhir/sid/us-ssn",
            "value": "000012226"
          },
          {
            "use": "official",
            "type": {
              "coding": [
                {
                  "system": "http://hl7.org/fhir/v2/0203",
                  "code": "PRN",
                  "display": "Provider number"
                }
              ],
              "text": "US National Provider Identifier"
            },
            "system": "http://hl7.org/fhir/sid/us-npi",
            "value": "9999912226"
          },
          {
            "use": "official",
            "type": {
              "coding": [
                {
                  "system": "http://hl7.org/fhir/identifier-type",
                  "code": "SB",
                  "display": "Social Beneficiary Identifier"
                }
              ],
              "text": "Michigan Common Key Service Identifier"
            },
            "system": "http://mihin.org/fhir/cks",
            "value": "3daa2d44ef64482e90c1db25376fb7e8"
          }
        ],
        "name": [
          {
            "family": "Leonard",
            "given": [
              "Christine",
              "Sherry"
            ],
            "suffix": [
              "MD"
            ]
          }
        ],
        "telecom": [
          {
            "system": "phone",
            "value": "734-555-1731",
            "use": "home"
          },
          {
            "system": "phone",
            "value": "734-555-6255",
            "use": "work"
          }
        ],
        "address": [
          {
            "line": [
              "591 E Colorado Street"
            ],
            "city": "Rockwood",
            "state": "MI",
            "postalCode": "48173"
          }
        ],
        "gender": "female",
        "birthDate": "1972-09-17",
        "qualification": [
          {
            "identifier": [
              {
                "use": "official",
                "type": {
                  "coding": [
                    {
                      "system": "http://hl7.org/fhir/v2/0203",
                      "code": "MD",
                      "display": "Medical License number"
                    }
                  ],
                  "text": "Michigan Medical License"
                },
                "system": "http://michigan.gov/fhir/medical-license",
                "value": "LARA-12226",
                "assigner": {
                  "display": "State of Michigan"
                }
              }
            ],
            "code": {
              "coding": [
                {
                  "system": "http://michigan.gov/lara/license-type",
                  "code": "4305",
                  "display": "Medical Doctor"
                }
              ]
            },
            "issuer": {
              "reference": "Organization/organization-2000",
              "display": "Michigan Department of Licensing and Regulatory Affairs"
            }
          }
        ]
      },
      "request": {
        "method": "PUT",
        "url": "http://localhost:8080/fhir/baseDstu3/Practitioner/practitioner-12226"
      }
    },
    {
      "fullUrl": "http://localhost:8080/fhir/baseDstu3/Procedure/Procedure-55",
      "resource": {
        "resourceType": "Procedure",
        "id": "procedure-55",
        "extension": [
          {
            "url": "http://mihin.org/fhir/templateId",
            "valueString": "2.16.840.1.113883.10.20.24.3.64"
          },
          {
            "url": "http://mihin.org/fhir/templateId",
            "valueString": "2.16.840.1.113883.10.20.22.4.14"
          }
        ],
        "identifier": [
          {
            "system": "http://hl7.org/fhir/identifier",
            "value": "1.3.6.1.4.1.115:579f4eb5aeac500a550c5d60"
          }
        ],
        "subject": {
          "reference": "Patient/patient-12235",
          "display": "4 N  N CA Male"
        },
        "status": "completed",
        "category": {
          "coding": [
            {
              "system": "http://snomed.info/sct",
              "code": "387713003",
              "display": "Surgical Procedure"
            }
          ]
        },
        "code": {
          "coding": [
            {
              "system": "http://snomed.info/sct",
              "code": "116783008"
            }
          ],
          "text": "Procedure, Performed: Pathology Evaluation"
        },
        "performedPeriod": {
          "start": "2015-07-13T08:15:00-04:00",
          "end": "2015-07-13T08:15:00-04:00"
        },
        "performer": [
          {
            "role": {
              "coding": [
                {
                  "system": "http://snomed.info/sct",
                  "code": "112247003",
                  "display": "Medical doctor"
                }
              ]
            },
            "actor": {
              "reference": "Practitioner/practitioner-12226",
              "display": "Christine Sherry Leonard MD"
            }
          }
        ]
      },
      "request": {
        "method": "PUT",
        "url": "http://localhost:8080/fhir/baseDstu3/Procedure/Procedure-55"
      }
    },
    {
      "fullUrl": "http://localhost:8080/fhir/baseDstu3/Procedure/Procedure-56",
      "resource": {
        "resourceType": "Procedure",
        "id": "procedure-56",
        "extension": [
          {
            "url": "http://mihin.org/fhir/templateId",
            "valueString": "2.16.840.1.113883.10.20.24.3.64"
          },
          {
            "url": "http://mihin.org/fhir/templateId",
            "valueString": "2.16.840.1.113883.10.20.22.4.14"
          }
        ],
        "identifier": [
          {
            "system": "http://hl7.org/fhir/identifier",
            "value": "1.3.6.1.4.1.115:579f4eb5aeac500a550c5d60"
          }
        ],
        "subject": {
          "reference": "Patient/patient-12235",
          "display": "4 N  N CA Male"
        },
        "status": "completed",
        "category": {
          "coding": [
            {
              "system": "http://snomed.info/sct",
              "code": "387713003",
              "display": "Surgical Procedure"
            }
          ]
        },
        "code": {
          "coding": [
            {
              "system": "http://snomed.info/sct",
              "code": "174158000"
            }
          ],
          "text": "Procedure, Performed: Colonoscopy"
        },
        "performedPeriod": {
          "start": "2011-07-13T08:15:00-04:00",
          "end": "2011-07-13T08:15:00-04:00"
        },
        "performer": [
          {
            "role": {
              "coding": [
                {
                  "system": "http://snomed.info/sct",
                  "code": "112247003",
                  "display": "Medical doctor"
                }
              ]
            },
            "actor": {
              "reference": "Practitioner/practitioner-12226",
              "display": "Christine Sherry Leonard MD"
            }
          }
        ]
      },
      "request": {
        "method": "PUT",
        "url": "http://localhost:8080/fhir/baseDstu3/Procedure/Procedure-56"
      }
    },
    {
      "fullUrl": "http://localhost:8080/fhir/baseDstu3/Procedure/Procedure-57",
      "resource": {
        "resourceType": "Procedure",
        "id": "procedure-57",
        "extension": [
          {
            "url": "http://mihin.org/fhir/templateId",
            "valueString": "2.16.840.1.113883.10.20.24.3.64"
          },
          {
            "url": "http://mihin.org/fhir/templateId",
            "valueString": "2.16.840.1.113883.10.20.22.4.14"
          }
        ],
        "identifier": [
          {
            "system": "http://hl7.org/fhir/identifier",
            "value": "1.3.6.1.4.1.115:579f4eb5aeac500a550c5d60"
          }
        ],
        "subject": {
          "reference": "Patient/patient-12235",
          "display": "4 N  N CA Male"
        },
        "status": "completed",
        "category": {
          "coding": [
            {
              "system": "http://snomed.info/sct",
              "code": "387713003",
              "display": "Surgical Procedure"
            }
          ]
        },
        "code": {
          "coding": [
            {
              "system": "http://snomed.info/sct",
              "code": "396226005"
            }
          ],
          "text": "Procedure, Performed: Flexible Sigmoidoscopy"
        },
        "performedPeriod": {
          "start": "2014-07-13T08:15:00-04:00",
          "end": "2014-07-13T08:15:00-04:00"
        },
        "performer": [
          {
            "role": {
              "coding": [
                {
                  "system": "http://snomed.info/sct",
                  "code": "112247003",
                  "display": "Medical doctor"
                }
              ]
            },
            "actor": {
              "reference": "Practitioner/practitioner-12226",
              "display": "Christine Sherry Leonard MD"
            }
          }
        ]
      },
      "request": {
        "method": "PUT",
        "url": "http://localhost:8080/fhir/baseDstu3/Procedure/Procedure-57"
      }
    },
    {
      "fullUrl": "http://localhost:8080/fhir/baseDstu3/AllergyIntolerance/AllergyIntolerance-58",
      "resource": {
        "resourceType": "AllergyIntolerance",
        "id": "allergyintolerance-58",
        "extension": [
          {
            "url": "http://mihin.org/fhir/templateId",
            "valueString": "2.16.840.1.113883.10.20.22.4.7"
          },
          {
            "url": "http://mihin.org/fhir/templateId",
            "valueString": "2.16.840.1.113883.10.20.24.3.46"
          }
        ],
        "identifier": [
          {
            "system": "http://hl7.org/fhir/identifier",
            "value": "1.3.6.1.4.1.115:579f4eb5aeac500a550c5d53"
          }
        ],
        "clinicalStatus": "active",
        "verificationStatus": "confirmed",
        "type": "intolerance",
        "category": [ "medication" ],
        "patient": {
          "reference": "Patient/patient-12235",
          "display": "4 N  N CA Male"
        },
        "assertedDate": "2015-07-23T08:15:00-04:00",
        "recorder": {
          "reference": "Practitioner/practitioner-12226",
          "display": "Christine Sherry Leonard MD"
        },
        "reaction": [
          {
            "substance": {
              "coding": [
                {
                  "system": "http://snomed.info/sct",
                  "code": "59037007",
                  "display": "Drug intolerance"
                }
              ],
              "text": "Drug intolerance"
            },
            "manifestation": [
              {
                "coding": [
                  {
                    "system": "http://snomed.info/sct",
                    "code": "247472004",
                    "display": "Hives"
                  }
                ]
              }
            ]
          }
        ]
      },
      "request": {
        "method": "PUT",
        "url": "http://localhost:8080/fhir/baseDstu3/AllergyIntolerance/AllergyIntolerance-58"
      }
    },
    {
      "fullUrl": "http://localhost:8080/fhir/baseDstu3/AllergyIntolerance/AllergyIntolerance-59",
      "resource": {
        "resourceType": "AllergyIntolerance",
        "id": "allergyintolerance-59",
        "extension": [
          {
            "url": "http://mihin.org/fhir/templateId",
            "valueString": "2.16.840.1.113883.10.20.22.4.7"
          },
          {
            "url": "http://mihin.org/fhir/templateId",
            "valueString": "2.16.840.1.113883.10.20.24.3.46"
          }
        ],
        "identifier": [
          {
            "system": "http://hl7.org/fhir/identifier",
            "value": "1.3.6.1.4.1.115:579f4eb5aeac500a550c5d54"
          }
        ],
        "clinicalStatus": "active",
        "verificationStatus": "confirmed",
        "type": "intolerance",
        "category": [ "medication" ],
        "patient": {
          "reference": "Patient/patient-12235",
          "display": "4 N  N CA Male"
        },
        "assertedDate": "2015-07-23T08:15:00-04:00",
        "recorder": {
          "reference": "Practitioner/practitioner-12226",
          "display": "Christine Sherry Leonard MD"
        },
        "reaction": [
          {
            "substance": {
              "coding": [
                {
                  "system": "http://snomed.info/sct",
                  "code": "59037007",
                  "display": "Drug intolerance"
                }
              ],
              "text": "Drug intolerance"
            },
            "manifestation": [
              {
                "coding": [
                  {
                    "system": "http://snomed.info/sct",
                    "code": "247472004",
                    "display": "Hives"
                  }
                ]
              }
            ]
          }
        ]
      },
      "request": {
        "method": "PUT",
        "url": "http://localhost:8080/fhir/baseDstu3/AllergyIntolerance/AllergyIntolerance-59"
      }
    },
    {
      "fullUrl": "http://localhost:8080/fhir/baseDstu3/AllergyIntolerance/AllergyIntolerance-60",
      "resource": {
        "resourceType": "AllergyIntolerance",
        "id": "allergyintolerance-60",
        "extension": [
          {
            "url": "http://mihin.org/fhir/templateId",
            "valueString": "2.16.840.1.113883.10.20.22.4.7"
          },
          {
            "url": "http://mihin.org/fhir/templateId",
            "valueString": "2.16.840.1.113883.10.20.24.3.46"
          }
        ],
        "identifier": [
          {
            "system": "http://hl7.org/fhir/identifier",
            "value": "1.3.6.1.4.1.115:579f4eb5aeac500a550c5d55"
          }
        ],
        "clinicalStatus": "active",
        "verificationStatus": "confirmed",
        "type": "intolerance",
        "category": [ "medication" ],
        "patient": {
          "reference": "Patient/patient-12235",
          "display": "4 N  N CA Male"
        },
        "assertedDate": "2015-07-23T08:15:00-04:00",
        "recorder": {
          "reference": "Practitioner/practitioner-12226",
          "display": "Christine Sherry Leonard MD"
        },
        "reaction": [
          {
            "substance": {
              "coding": [
                {
                  "system": "http://snomed.info/sct",
                  "code": "59037007",
                  "display": "Drug intolerance"
                }
              ],
              "text": "Drug intolerance"
            },
            "manifestation": [
              {
                "coding": [
                  {
                    "system": "http://snomed.info/sct",
                    "code": "247472004",
                    "display": "Hives"
                  }
                ]
              }
            ]
          }
        ]
      },
      "request": {
        "method": "PUT",
        "url": "http://localhost:8080/fhir/baseDstu3/AllergyIntolerance/AllergyIntolerance-60"
      }
    },
    {
      "fullUrl": "http://localhost:8080/fhir/baseDstu3/AllergyIntolerance/AllergyIntolerance-61",
      "resource": {
        "resourceType": "AllergyIntolerance",
        "id": "allergyintolerance-61",
        "extension": [
          {
            "url": "http://mihin.org/fhir/templateId",
            "valueString": "2.16.840.1.113883.10.20.22.4.7"
          },
          {
            "url": "http://mihin.org/fhir/templateId",
            "valueString": "2.16.840.1.113883.10.20.24.3.46"
          }
        ],
        "identifier": [
          {
            "system": "http://hl7.org/fhir/identifier",
            "value": "1.3.6.1.4.1.115:579f4eb5aeac500a550c5d56"
          }
        ],
        "clinicalStatus": "active",
        "verificationStatus": "confirmed",
        "type": "intolerance",
        "category": [ "medication" ],
        "patient": {
          "reference": "Patient/patient-12235",
          "display": "4 N  N CA Male"
        },
        "assertedDate": "2015-07-23T08:15:00-04:00",
        "recorder": {
          "reference": "Practitioner/practitioner-12226",
          "display": "Christine Sherry Leonard MD"
        },
        "reaction": [
          {
            "substance": {
              "coding": [
                {
                  "system": "http://snomed.info/sct",
                  "code": "59037007",
                  "display": "Drug intolerance"
                }
              ],
              "text": "Drug intolerance"
            },
            "manifestation": [
              {
                "coding": [
                  {
                    "system": "http://snomed.info/sct",
                    "code": "247472004",
                    "display": "Hives"
                  }
                ]
              }
            ]
          }
        ]
      },
      "request": {
        "method": "PUT",
        "url": "http://localhost:8080/fhir/baseDstu3/AllergyIntolerance/AllergyIntolerance-61"
      }
    },
    {
      "fullUrl": "http://localhost:8080/fhir/baseDstu3/Condition/Condition-62",
      "resource": {
        "resourceType": "Condition",
        "id": "condition-62",
        "extension": [
          {
            "url": "http://mihin.org/fhir/templateId",
            "valueString": "2.16.840.1.113883.10.20.22.4.3"
          },
          {
            "url": "http://mihin.org/fhir/templateId",
            "valueString": "2.16.840.1.113883.10.20.24.3.137"
          }
        ],
        "clinicalStatus": "active",
        "verificationStatus": "confirmed",
        "category": [
          {
            "coding": [
              {
                "system": "http://hl7.org/fhir/condition-category",
                "code": "encounter-diagnosis",
                "display": "Encounter Diagnosis"
              }
            ],
            "text": "This is a judgment made by a healthcare provider that the patient has a particular disease or condition"
          }
        ],
        "code": {
          "coding": [
            {
              "system": "http://snomed.info/sct",
              "code": "292196008"
            }
          ],
          "text": "Diagnosis: Intolerance To Antineoplastic Therapy"
        },
        "subject": {
          "reference": "Patient/patient-12235",
          "display": "4 N  N CA Male"
        },
        "asserter": {
          "reference": "Practitioner/practitioner-12226",
          "display": "Christine Sherry Leonard MD"
        }
      },
      "request": {
        "method": "PUT",
        "url": "http://localhost:8080/fhir/baseDstu3/Condition/Condition-62"
      }
    }
  ]
}