{
  "resourceType": "Bundle",
  "id": "load-patient-12214",
  "meta": {
    "versionId": "3",
    "lastUpdated": "2017-09-16T15:52:58.622-04:00"
  },
  "type": "transaction",
  "entry": [
    {
      "fullUrl": "http://localhost:8080/fhir/baseDstu3/Patient/patient-12214",
      "resource": {
        "resourceType": "Patient",
        "id": "Patient-12214",
        "text": {
          "status": "generated",
          "div": "<div xmlns=\"http://www.w3.org/1999/xhtml\">Some narrative</div>"
        },
        "reference": "Patient/12214",
        "identifier": [
          {
            "use": "official",
            "type": {
              "coding": [
                {
                  "system": "http://hl7.org/fhir/STU3/identifier-type",
                  "code": "SB",
                  "display": "Social Beneficiary Identifier"
                }
              ],
              "text": "Michigan Common Key Service Identifier"
            },
            "system": "http://mihin.org/fhir/cks",
            "value": "7f3672feb3b54789953e012d8aef5246"
          }
        ],
        "active": false,
        "name": [
          {
            "family": "N Geriatric",
            "given": [
              "2"
            ],
            "suffix": [
              "Jr"
            ]
          }
        ],
        "telecom": [
          {
            "system": "phone",
            "value": "586-555-7576",
            "use": "home"
          },
          {
            "system": "phone",
            "value": "586-555-0297",
            "use": "work"
          },
          {
            "extension": [
              {
                "url": "http://hl7.org/fhir/us/core/StructureDefinition/us-core-direct",
                "valueBoolean": true
              }
            ],
            "system": "email",
            "value": "name@email.com",
            "use": "home"
          }
        ],
        "gender": "male",
        "birthDate": "1946-05-07",
        "address": [
          {
            "line": [
              "202 Burlington Rd."
            ],
            "city": "Bedford",
            "state": "MA",
            "postalCode": "01730"
          }
        ]
      },
      "request": {
        "method": "PUT",
        "url": "http://localhost:8080/fhir/baseDstu3/Patient/patient-12214"
      }
    },
    {
      "fullUrl": "http://localhost:8080/fhir/baseDstu3/Practitioner/practitioner-12208",
      "resource": {
        "resourceType": "Practitioner",
        "id": "Practitioner-12208",
        "identifier": [
          {
            "use": "official",
            "type": {
              "coding": [
                {
                  "system": "http://hl7.org/fhir/STU3/identifier-type",
                  "code": "SB",
                  "display": "Social Beneficiary Identifier"
                }
              ],
              "text": "US Social Security Number"
            },
            "system": "http://hl7.org/fhir/sid/us-ssn",
            "value": "000012208"
          },
          {
            "use": "official",
            "type": {
              "coding": [
                {
                  "system": "http://hl7.org/fhir/v2/0203",
                  "code": "PRN",
                  "display": "Provider number"
                }
              ],
              "text": "US National Provider Identifier"
            },
            "system": "http://hl7.org/fhir/sid/us-npi",
            "value": "9999912208"
          },
          {
            "use": "official",
            "type": {
              "coding": [
                {
                  "system": "http://hl7.org/fhir/STU3/identifier-type",
                  "code": "SB",
                  "display": "Social Beneficiary Identifier"
                }
              ],
              "text": "Michigan Common Key Service Identifier"
            },
            "system": "http://mihin.org/fhir/cks",
            "value": "c6cc1bbaf5ea41c5a0d267e3a655def1"
          }
        ],
        "name": [
          {
            "family": "Sawyer",
            "given": [
              "Jay",
              "McCann"
            ],
            "suffix": [
              "MD"
            ]
          }
        ],
        "telecom": [
          {
            "system": "phone",
            "value": "989-555-8443",
            "use": "home"
          },
          {
            "system": "phone",
            "value": "989-555-5764",
            "use": "work"
          }
        ],
        "address": [
          {
            "line": [
              "77 S Pine Place"
            ],
            "city": "Beaverton",
            "state": "MI",
            "postalCode": "48612"
          }
        ],
        "gender": "male",
        "birthDate": "1970-08-07",
        "qualification": [
          {
            "identifier": [
              {
                "use": "official",
                "type": {
                  "coding": [
                    {
                      "system": "http://hl7.org/fhir/v2/0203",
                      "code": "MD",
                      "display": "Medical License number"
                    }
                  ],
                  "text": "Michigan Medical License"
                },
                "system": "http://michigan.gov/fhir/medical-license",
                "value": "LARA-12208",
                "assigner": {
                  "display": "State of Michigan"
                }
              }
            ],
            "code": {
              "coding": [
                {
                  "system": "http://michigan.gov/lara/license-type",
                  "code": "4305",
                  "display": "Medical Doctor"
                }
              ]
            },
            "issuer": {
              "reference": "Organization/organization-2000",
              "display": "Michigan Department of Licensing and Regulatory Affairs"
            }
          }
        ]
      },
      "request": {
        "method": "PUT",
        "url": "http://localhost:8080/fhir/baseDstu3/Practitioner/practitioner-12208"
      }
    },
    {
      "fullUrl": "http://localhost:8080/fhir/baseDstu3/Organization/organization-2002",
      "resource": {
        "resourceType": "Organization",
        "id": "Organization-2002",
        "extension": [
          {
            "url": "http://hl7.org/fhir/StructureDefinition/organization-alias",
            "valueIdentifier": {
              "use": "official",
              "type": {
                "coding": [
                  {
                    "system": "http://gov.michigan.fhir.organization-license-type",
                    "code": "PRACTICE"
                  }
                ],
                "text": "Michigan Medical Practice License"
              },
              "system": "http://gov.michigan.fhir.organization-license",
              "value": "LARA-ORG-2002",
              "assigner": {
                "display": "State of Michigan"
              }
            }
          },
          {
            "url": "http://hl7.org/fhir/StructureDefinition/organization-alias",
            "valueCodeableConcept": {
              "coding": [
                {
                  "system": "http://org.nucc.taxonomy",
                  "code": "261Q00000X",
                  "display": "Clinic/Center"
                }
              ]
            }
          },
          {
            "url": "http://hl7.org/fhir/StructureDefinition/organization-alias",
            "valueReference": {
              "reference": "ElectronicService/ElectronicService-50",
              "display": "orgname@email.com"
            }
          }
        ],
        "identifier": [
          {
            "use": "official",
            "system": "http://www.hl7.org/oid/",
            "value": "1.2.3.4.5.9.99.999.9999.2002"
          },
          {
            "use": "official",
            "type": {
              "coding": [
                {
                  "system": "http://hl7.org/fhir/v2/0203",
                  "code": "PRN",
                  "display": "Provider number"
                }
              ],
              "text": "US National Provider Identifier"
            },
            "system": "http://hl7.org/fhir/sid/us-npi",
            "value": "9999992002"
          }
        ],
        "active": true,
        "type": {
          "text": "Clinic/Center"
        },
        "name": "Sun Hill Physicians",
        "telecom": [
          {
            "system": "phone",
            "value": "231-555-9381",
            "use": "work"
          }
        ],
        "address": [
          {
            "line": [
              "261 Ninth Street"
            ],
            "city": "Bitely",
            "state": "MI",
            "postalCode": "49309"
          }
        ]
      },
      "request": {
        "method": "PUT",
        "url": "http://localhost:8080/fhir/baseDstu3/Organization/organization-2002"
      }
    },
    {
      "fullUrl": "http://localhost:8080/fhir/baseDstu3/Encounter/Encounter-1",
      "resource": {
        "resourceType": "Encounter",
        "id": "Encounter-1",
        "extension": [
          {
            "url": "http://hl7.org/fhir/StructureDefinition/organization-alias",
            "valueString": "2.16.840.1.113883.10.20.22.4.49"
          },
          {
            "url": "http://hl7.org/fhir/StructureDefinition/organization-alias",
            "valueString": "2.16.840.1.113883.10.20.24.3.23"
          }
        ],
        "status": "finished",
        "class": {
          "system": "http://hl7.org/fhir/v3/ActCode",
          "code": "AMB",
          "display": "ambulatory"
        },
        "type": [
          {
            "coding": [
              {
                "system": "http://snomed.info/sct",
                "code": "390906007"
              }
            ],
            "text": "Encounter, Performed: Face To Face Interaction"
          }
        ],
        "subject": {
          "reference": "Patient/patient-12214",
          "display": "2 N Geriatric Jr"
        },
        "participant": [
          {
            "period": {
              "start": "2015-06-18T08:00:00-04:00",
              "end": "2015-06-18T08:15:00-04:00"
            },
            "individual": {
              "reference": "Practitioner/practitioner-12208",
              "display": "Jay McCann Sawyer MD"
            }
          }
        ],
        "serviceProvider": {
          "reference": "Organization/organization-2002",
          "display": "Sun Hill Physicians"
        }
      },
      "request": {
        "method": "PUT",
        "url": "http://localhost:8080/fhir/baseDstu3/Encounter/Encounter-1"
      }
    },
    {
      "fullUrl": "http://localhost:8080/fhir/baseDstu3/Coverage/Coverage-2",
      "resource": {
        "resourceType": "Coverage",
        "id": "Coverage-2",
        "extension": [
          {
            "url": "http://hl7.org/fhir/StructureDefinition/organization-alias",
            "valueString": "2.16.840.1.113883.10.20.24.3.55"
          }
        ],
        "identifier": [
          {
            "system": "http://hl7.org/fhir/identifier",
            "value": "1.3.6.1.4.1.115:579f4eb5aeac500a550c5c81"
          }
        ],
        "status": "active",
        "type": {
          "system": "2.16.840.1.113883.3.221.5",
          "code": "349"
        },
        "policyHolder": {
          "reference": "Patient/patient-12214",
          "display": "2  N Geriatric Jr"
        },
        "beneficiary": {
          "reference": "Patient/patient-12214",
          "display": "2  N Geriatric Jr"
        },
        "relationship": {
          "system": "http://hl7.org/fhir/policyholder-relationship",
          "code": "self"
        },
        "period": {
          "start": "2008-01-01T05:00:00-05:00"
        },
        "payor": [
          {
            "reference": "Organization/organization-2002",
            "display": "Example Issuer"
          }
        ]
      },
      "request": {
        "method": "PUT",
        "url": "http://localhost:8080/fhir/baseDstu3/Coverage/Coverage-2"
      }
    },
    {
      "fullUrl": "http://localhost:8080/fhir/baseDstu3/Encounter/Encounter-3",
      "resource": {
        "resourceType": "Encounter",
        "id": "Encounter-3",
        "extension": [
          {
            "url": "http://hl7.org/fhir/StructureDefinition/organization-alias",
            "valueString": "2.16.840.1.113883.10.20.22.4.49"
          },
          {
            "url": "http://hl7.org/fhir/StructureDefinition/organization-alias",
            "valueString": "2.16.840.1.113883.10.20.24.3.23"
          }
        ],
        "status": "finished",
        "class": {
          "system": "http://hl7.org/fhir/v3/ActCode",
          "code": "AMB",
          "display": "ambulatory"
        },
        "type": [
          {
            "coding": [
              {
                "system": "http://www.ama-assn.org/go/cpt",
                "code": "99024"
              }
            ],
            "text": "Encounter, Performed: Postoperative Visit"
          }
        ],
        "subject": {
          "reference": "Patient/patient-12214",
          "display": "2  N Geriatric Jr"
        },
        "participant": [
          {
            "period": {
              "start": "2015-08-28T08:00:00-04:00",
              "end": "2015-08-28T08:15:00-04:00"
            },
            "individual": {
              "reference": "Practitioner/practitioner-12208",
              "display": "Jay McCann Sawyer MD"
            }
          }
        ],
        "serviceProvider": {
          "reference": "Organization/organization-2002",
          "display": "Sun Hill Physicians"
        }
      },
      "request": {
        "method": "PUT",
        "url": "http://localhost:8080/fhir/baseDstu3/Encounter/Encounter-3"
      }
    },
    {
      "fullUrl": "http://localhost:8080/fhir/baseDstu3/Condition/Condition-4",
      "resource": {
        "resourceType": "Condition",
        "id": "Condition-4",
        "extension": [
          {
            "url": "http://hl7.org/fhir/StructureDefinition/organization-alias",
            "valueString": "2.16.840.1.113883.10.20.22.4.3"
          },
          {
            "url": "http://hl7.org/fhir/StructureDefinition/organization-alias",
            "valueString": "2.16.840.1.113883.10.20.24.3.137"
          }
        ],
        "clinicalStatus":  "active",
        "verificationStatus": "confirmed",
        "category": {
          "coding": [
            {
              "system": "http://hl7.org/fhir/condition-category",
              "code": "encounter-diagnosis",
              "display": "Encounter Diagnosis"
            }
          ],
          "text": "This is a judgment made by a healthcare provider that the patient has a particular disease or condition"
        },
        "code": {
          "coding": [
            {
              "system": "http://snomed.info/sct",
              "code": "428351000124105"
            }
          ],
          "text": "Diagnosis: Severe Dementia"
        },
        "subject": {
          "reference": "Patient/patient-12214",
          "display": "2  N Geriatric Jr"
        },
        "assertedDate": "2014-04-22T20:30:02+00:00",
        "asserter": {
          "reference": "Practitioner/practitioner-12208",
          "display": "Jay McCann Sawyer MD"
        }
      },
      "request": {
        "method": "PUT",
        "url": "http://localhost:8080/fhir/baseDstu3/Condition/Condition-4"
      }
    },
    {
      "fullUrl": "http://localhost:8080/fhir/baseDstu3/Condition/Condition-5",
      "resource": {
        "resourceType": "Condition",
        "id": "Condition-5",
        "extension": [
          {
            "url": "http://hl7.org/fhir/StructureDefinition/organization-alias",
            "valueString": "2.16.840.1.113883.10.20.22.4.3"
          },
          {
            "url": "http://hl7.org/fhir/StructureDefinition/organization-alias",
            "valueString": "2.16.840.1.113883.10.20.24.3.137"
          }
        ],
        "clinicalStatus": "active",
        "verificationStatus": "confirmed",
        "category": {
          "coding": [
            {
              "system": "http://hl7.org/fhir/condition-category",
              "code": "encounter-diagnosis",
              "display": "Encounter Diagnosis"
            }
          ],
          "text": "This is a judgment made by a healthcare provider that the patient has a particular disease or condition"
        },
        "code": {
          "coding": [
            {
              "system": "http://snomed.info/sct",
              "code": "447395005"
            }
          ],
          "text": "Diagnosis: Fracture Lower Body"
        },
        "subject": {
          "reference": "Patient/patient-12214",
          "display": "2  N Geriatric Jr"
        },
        "assertedDate": "2015-06-22T20:30:02+00:00",
        "asserter": {
          "reference": "Practitioner/practitioner-12208",
          "display": "Jay McCann Sawyer MD"
        }
      },
      "request": {
        "method": "PUT",
        "url": "http://localhost:8080/fhir/baseDstu3/Condition/Condition-5"
      }
    },
    {
      "fullUrl": "http://localhost:8080/fhir/baseDstu3/Condition/Condition-6",
      "resource": {
        "resourceType": "Condition",
        "id": "Condition-6",
        "extension": [
          {
            "url": "http://hl7.org/fhir/StructureDefinition/organization-alias",
            "valueString": "2.16.840.1.113883.10.20.22.4.3"
          },
          {
            "url": "http://hl7.org/fhir/StructureDefinition/organization-alias",
            "valueString": "2.16.840.1.113883.10.20.24.3.137"
          }
        ],
        "clinicalStatus": "active",
        "verificationStatus": "confirmed",
        "category": {
          "coding": [
            {
              "system": "http://hl7.org/fhir/condition-category",
              "code": "encounter-diagnosis",
              "display": "Encounter Diagnosis"
            }
          ],
          "text": "This is a judgment made by a healthcare provider that the patient has a particular disease or condition"
        },
        "code": {
          "coding": [
            {
              "system": "http://snomed.info/sct",
              "code": "208150008"
            }
          ],
          "text": "Diagnosis: Fracture Lower Body"
        },
        "subject": {
          "reference": "Patient/patient-12214",
          "display": "2  N Geriatric Jr"
        },
        "assertedDate": "2015-06-22T20:30:02+00:00",
        "asserter": {
          "reference": "Practitioner/practitioner-12208",
          "display": "Jay McCann Sawyer MD"
        }
      },
      "request": {
        "method": "PUT",
        "url": "http://localhost:8080/fhir/baseDstu3/Condition/Condition-6"
      }
    },
    {
      "fullUrl": "http://localhost:8080/fhir/baseDstu3/Procedure/Procedure-7",
      "resource": {
        "resourceType": "Procedure",
        "id": "Procedure-7",
        "extension": [
          {
            "url": "http://hl7.org/fhir/StructureDefinition/organization-alias",
            "valueString": "2.16.840.1.113883.10.20.24.3.64"
          },
          {
            "url": "http://hl7.org/fhir/StructureDefinition/organization-alias",
            "valueString": "2.16.840.1.113883.10.20.22.4.14"
          }
        ],
        "identifier": [
          {
            "system": "http://hl7.org/fhir/identifier",
            "value": "1.3.6.1.4.1.115:579f4eb5aeac500a550c5c7c"
          }
        ],
        "subject": {
          "reference": "Patient/patient-12214",
          "display": "2  N Geriatric Jr"
        },
        "status": "completed",
        "category": {
          "coding": [
            {
              "system": "http://snomed.info/sct",
              "code": "387713003",
              "display": "Surgical Procedure"
            }
          ]
        },
        "code": {
          "coding": [
            {
              "system": "http://snomed.info/sct",
              "code": "443682009"
            }
          ],
          "text": "Procedure, Performed: Primary Tka Procedure"
        },
        "performer": [
          {
            "role": {
              "coding": [
                {
                  "system": "http://snomed.info/sct",
                  "code": "112247003",
                  "display": "Medical doctor"
                }
              ]
            },
            "actor": {
              "reference": "Practitioner/practitioner-12208",
              "display": "Jay McCann Sawyer MD"
            }
          }
        ],
        "performedPeriod": {
          "start": "2015-06-22T08:00:00-04:00",
          "end": "2015-06-22T10:15:00-04:00"
        }
      },
      "request": {
        "method": "PUT",
        "url": "http://localhost:8080/fhir/baseDstu3/Procedure/Procedure-7"
      }
    },
    {
      "fullUrl": "http://localhost:8080/fhir/baseDstu3/Condition/Condition-8",
      "resource": {
        "resourceType": "Condition",
        "id": "Condition-8",
        "extension": [
          {
            "url": "http://hl7.org/fhir/StructureDefinition/organization-alias",
            "valueString": "2.16.840.1.113883.10.20.22.4.3"
          },
          {
            "url": "http://hl7.org/fhir/StructureDefinition/organization-alias",
            "valueString": "2.16.840.1.113883.10.20.24.3.137"
          }
        ],
        "clinicalStatus": "active",
        "verificationStatus": "confirmed",
        "category": [{
          "coding": [
            {
              "system": "http://hl7.org/fhir/condition-category",
              "code": "encounter-diagnosis",
              "display": "Encounter Diagnosis"
            }
          ],
          "text": "This is a judgment made by a healthcare provider that the patient has a particular disease or condition"
        }],
        "code": {
          "coding": [
            {
              "system": "http://snomed.info/sct",
              "code": "363414004"
            }
          ],
          "text": "Diagnosis: Malignant Neoplasm Of Colon"
        },
        "subject": {
          "reference": "Patient/patient-12214",
          "display": "2 N Geriatric Jr"
        },
        "assertedDate": "2011-02-01T20:30:02+00:00",
        "asserter": {
          "reference": "Practitioner/practitioner-12208",
          "display": "Jay McCann Sawyer MD"
        }
      },
      "request": {
        "method": "PUT",
        "url": "http://localhost:8080/fhir/baseDstu3/Condition/Condition-8"
      }
    },
    {
      "fullUrl": "http://localhost:8080/fhir/baseDstu3/Procedure/Procedure-9",
      "resource": {
        "resourceType": "Procedure",
        "id": "Procedure-9",
        "extension": [
          {
            "url": "http://hl7.org/fhir/StructureDefinition/organization-alias",
            "valueString": "2.16.840.1.113883.10.20.24.3.64"
          },
          {
            "url": "http://hl7.org/fhir/StructureDefinition/organization-alias",
            "valueString": "2.16.840.1.113883.10.20.22.4.14"
          }
        ],
        "identifier": [
          {
            "system": "http://hl7.org/fhir/identifier",
            "value": "1.3.6.1.4.1.115:579f4eb5aeac500a550c5c7b"
          }
        ],
        "subject": {
          "reference": "Patient/patient-12214",
          "display": "2  N Geriatric Jr"
        },
        "status": "completed",
        "category": {
          "coding": [
            {
              "system": "http://snomed.info/sct",
              "code": "387713003",
              "display": "Surgical Procedure"
            }
          ]
        },
        "code": {
          "coding": [
            {
              "system": "http://snomed.info/sct",
              "code": "36192008"
            }
          ],
          "text": "Procedure, Performed: Total Colectomy"
        },
        "performer": [
          {
            "role": {
              "coding": [
                {
                  "system": "http://snomed.info/sct",
                  "code": "112247003",
                  "display": "Medical doctor"
                }
              ]
            },
            "actor": {
              "reference": "Practitioner/practitioner-12208",
              "display": "Jay McCann Sawyer MD"
            }
          }
        ],
        "performedPeriod": {
          "start": "2010-10-12T06:00:00-04:00",
          "end": "2010-10-12T08:15:00-04:00"
        }
      },
      "request": {
        "method": "PUT",
        "url": "http://localhost:8080/fhir/baseDstu3/Procedure/Procedure-9"
      }
    },
    {
      "fullUrl": "http://localhost:8080/fhir/baseDstu3/Observation/Observation-10",
      "resource": {
        "resourceType": "Observation",
        "id": "Observation-10",
        "extension": [
          {
            "url": "http://hl7.org/fhir/StructureDefinition/organization-alias",
            "valueString": "2.16.840.1.113883.10.20.22.4.69"
          },
          {
            "url": "http://hl7.org/fhir/StructureDefinition/organization-alias",
            "valueString": "2.16.840.1.113883.10.20.24.3.69"
          }
        ],
        "identifier": [
          {
            "system": "http://hl7.org/fhir/identifier",
            "value": "1.3.6.1.4.1.115:579f4eb5aeac500a550c5c7d"
          }
        ],
        "status": "final",
        "code": {
          "coding": [
            {
              "system": "http://snomed.info/sct",
              "code": "282145008"
            }
          ],
          "text": "Risk Category Assessment: Patient Not Ambulatory"
        },
        "subject": {
          "reference": "Patient/patient-12214",
          "display": "2  N Geriatric Jr"
        },
        "issued": "2015-06-22T11:00:00-04:00",
        "performer": [
          {
            "reference": "Practitioner/practitioner-12208",
            "display": "Jay McCann Sawyer MD"
          }
        ]
      },
      "request": {
        "method": "PUT",
        "url": "http://localhost:8080/fhir/baseDstu3/Observation/Observation-10"
      }
    },
    {
      "fullUrl": "http://localhost:8080/fhir/baseDstu3/Condition/Condition-11",
      "resource": {
        "resourceType": "Condition",
        "id": "Condition-11",
        "extension": [
          {
            "url": "http://hl7.org/fhir/StructureDefinition/organization-alias",
            "valueString": "2.16.840.1.113883.10.20.22.4.3"
          },
          {
            "url": "http://hl7.org/fhir/StructureDefinition/organization-alias",
            "valueString": "2.16.840.1.113883.10.20.24.3.137"
          }
        ],
        "clinicalStatus": "active",
        "verificationStatus": "confirmed",
        "category": [{
          "coding": [
            {
              "system": "http://hl7.org/fhir/condition-category",
              "code": "encounter-diagnosis",
              "display": "Encounter Diagnosis"
            }
          ],
          "text": "This is a judgment made by a healthcare provider that the patient has a particular disease or condition"
        }],
        "code": {
          "coding": [
            {
              "system": "http://snomed.info/sct",
              "code": "447395005"
            }
          ],
          "text": "Diagnosis: Fracture Lower Body"
        },
        "subject": {
          "reference": "Patient/patient-12214",
          "display": "2  N Geriatric Jr"
        },
        "assertedDate": "2015-06-22T20:30:02+00:00",
        "asserter": {
          "reference": "Practitioner/practitioner-12208",
          "display": "Jay McCann Sawyer MD"
        }
      },
      "request": {
        "method": "PUT",
        "url": "http://localhost:8080/fhir/baseDstu3/Condition/Condition-11"
      }
    },
    {
      "fullUrl": "http://localhost:8080/fhir/baseDstu3/Condition/Condition-12",
      "resource": {
        "resourceType": "Condition",
        "id": "Condition-12",
        "extension": [
          {
            "url": "http://hl7.org/fhir/StructureDefinition/organization-alias",
            "valueString": "2.16.840.1.113883.10.20.22.4.3"
          },
          {
            "url": "http://hl7.org/fhir/StructureDefinition/organization-alias",
            "valueString": "2.16.840.1.113883.10.20.24.3.137"
          }
        ],
        "clinicalStatus": "active",
        "verificationStatus": "confirmed",
        "category": {
          "coding": [
            {
              "system": "http://hl7.org/fhir/condition-category",
              "code": "encounter-diagnosis",
              "display": "Encounter Diagnosis"
            }
          ],
          "text": "This is a judgment made by a healthcare provider that the patient has a particular disease or condition"
        },
        "code": {
          "coding": [
            {
              "system": "http://snomed.info/sct",
              "code": "208150008"
            }
          ],
          "text": "Diagnosis: Fracture Lower Body"
        },
        "subject": {
          "reference": "Patient/patient-12214",
          "display": "2  N Geriatric Jr"
        },
        "assertedDate": "2015-06-22T20:30:02+00:00",
        "asserter": {
          "reference": "Practitioner/practitioner-12208",
          "display": "Jay McCann Sawyer MD"
        }
      },
      "request": {
        "method": "PUT",
        "url": "http://localhost:8080/fhir/baseDstu3/Condition/Condition-12"
      }
    },
    {
      "fullUrl": "http://localhost:8080/fhir/baseDstu3/Condition/Condition-13",
      "resource": {
        "resourceType": "Condition",
        "id": "Condition-13",
        "extension": [
          {
            "url": "http://hl7.org/fhir/StructureDefinition/organization-alias",
            "valueString": "2.16.840.1.113883.10.20.22.4.3"
          },
          {
            "url": "http://hl7.org/fhir/StructureDefinition/organization-alias",
            "valueString": "2.16.840.1.113883.10.20.24.3.137"
          }
        ],
        "clinicalStatus": "active",
        "verificationStatus": "confirmed",
        "category": {
          "coding": [
            {
              "system": "http://hl7.org/fhir/condition-category",
              "code": "encounter-diagnosis",
              "display": "Encounter Diagnosis"
            }
          ],
          "text": "This is a judgment made by a healthcare provider that the patient has a particular disease or condition"
        },
        "code": {
          "coding": [
            {
              "system": "http://snomed.info/sct",
              "code": "363414004"
            }
          ],
          "text": "Diagnosis: Malignant Neoplasm Of Colon"
        },
        "subject": {
          "reference": "Patient/patient-12214",
          "display": "2  N Geriatric Jr"
        },
        "assertedDate": "2011-02-01T20:30:02+00:00",
        "asserter": {
          "reference": "Practitioner/practitioner-12208",
          "display": "Jay McCann Sawyer MD"
        }
      },
      "request": {
        "method": "PUT",
        "url": "http://localhost:8080/fhir/baseDstu3/Condition/Condition-13"
      }
    },
    {
      "fullUrl": "http://localhost:8080/fhir/baseDstu3/Condition/Condition-14",
      "resource": {
        "resourceType": "Condition",
        "id": "Condition-14",
        "extension": [
          {
            "url": "http://hl7.org/fhir/StructureDefinition/organization-alias",
            "valueString": "2.16.840.1.113883.10.20.22.4.3"
          },
          {
            "url": "http://hl7.org/fhir/StructureDefinition/organization-alias",
            "valueString": "2.16.840.1.113883.10.20.24.3.137"
          }
        ],
        "clinicalStatus": "active",
        "verificationStatus": "confirmed",
        "category": {
          "coding": [
            {
              "system": "http://hl7.org/fhir/condition-category",
              "code": "encounter-diagnosis",
              "display": "Encounter Diagnosis"
            }
          ],
          "text": "This is a judgment made by a healthcare provider that the patient has a particular disease or condition"
        },
        "code": {
          "coding": [
            {
              "system": "http://loinc.org",
              "code": "153.3"
            }
          ],
          "text": "Diagnosis: Malignant Neoplasm Of Colon"
        },
        "subject": {
          "reference": "Patient/patient-12214",
          "display": "2  N Geriatric Jr"
        },
        "assertedDate": "2011-02-01T20:30:02+00:00",
        "asserter": {
          "reference": "Practitioner/practitioner-12208",
          "display": "Jay McCann Sawyer MD"
        }
      },
      "request": {
        "method": "PUT",
        "url": "http://localhost:8080/fhir/baseDstu3/Condition/Condition-14"
      }
    },
    {
      "fullUrl": "http://localhost:8080/fhir/baseDstu3/Encounter/Encounter-15",
      "resource": {
        "resourceType": "Encounter",
        "id": "Encounter-15",
        "extension": [
          {
            "url": "http://hl7.org/fhir/StructureDefinition/organization-alias",
            "valueString": "2.16.840.1.113883.10.20.22.4.49"
          },
          {
            "url": "http://hl7.org/fhir/StructureDefinition/organization-alias",
            "valueString": "2.16.840.1.113883.10.20.24.3.23"
          }
        ],
        "status": "finished",
        "class": {
          "system": "http://hl7.org/fhir/v3/ActCode",
          "code": "AMB",
          "display": "ambulatory"
        },
        "type": [
          {
            "coding": [
              {
                "system": "http://www.ama-assn.org/go/cpt",
                "code": "96120"
              }
            ],
            "text": "Encounter, Performed: Behavioral/Neuropsych Assessment"
          }
        ],
        "subject": {
          "reference": "Patient/patient-12214",
          "display": "2  N Geriatric Jr"
        },
        "participant": [
          {
            "period": {
              "start": "2015-09-28T08:00:00-04:00",
              "end": "2015-09-28T08:30:00-04:00"
            },
            "individual": {
              "reference": "Practitioner/practitioner-12208",
              "display": "Jay McCann Sawyer MD"
            }
          }
        ],
        "serviceProvider": {
          "reference": "Organization/organization-2002",
          "display": "Sun Hill Physicians"
        }
      },
      "request": {
        "method": "PUT",
        "url": "http://localhost:8080/fhir/baseDstu3/Encounter/Encounter-15"
      }
    },
    {
      "fullUrl": "http://localhost:8080/fhir/baseDstu3/Observation/Observation-16",
      "resource": {
        "resourceType": "Observation",
        "id": "Observation-16",
        "extension": [
          {
            "url": "http://hl7.org/fhir/StructureDefinition/organization-alias",
            "valueString": "2.16.840.1.113883.10.20.22.4.69"
          },
          {
            "url": "http://hl7.org/fhir/StructureDefinition/organization-alias",
            "valueString": "2.16.840.1.113883.10.20.24.3.69"
          }
        ],
        "identifier": [
          {
            "system": "http://hl7.org/fhir/identifier",
            "value": "1.3.6.1.4.1.115:579f4eb5aeac500a550c5c7f"
          }
        ],
        "status": "final",
        "code": {
          "coding": [
            {
              "system": "http://loinc.org",
              "code": "71722-3"
            }
          ],
          "text": "Risk Category Assessment: Standardized Tools For Assessment Of Cognition"
        },
        "subject": {
          "reference": "Patient/patient-12214",
          "display": "2  N Geriatric Jr"
        },
        "issued": "2015-09-28T08:00:00-04:00",
        "performer": [
          {
            "reference": "Practitioner/practitioner-12208",
            "display": "Jay McCann Sawyer MD"
          }
        ]
      },
      "request": {
        "method": "PUT",
        "url": "http://localhost:8080/fhir/baseDstu3/Observation/Observation-16"
      }
    },
    {
      "fullUrl": "http://localhost:8080/fhir/baseDstu3/Procedure/Procedure-17",
      "resource": {
        "resourceType": "Procedure",
        "id": "Procedure-17",
        "extension": [
          {
            "url": "http://hl7.org/fhir/StructureDefinition/organization-alias",
            "valueString": "2.16.840.1.113883.10.20.22.4.12"
          },
          {
            "url": "http://hl7.org/fhir/StructureDefinition/organization-alias",
            "valueString": "2.16.840.1.113883.10.20.24.3.32"
          }
        ],
        "subject": {
          "reference": "Patient/patient-12214",
          "display": "2  N Geriatric Jr"
        },
        "status": "completed",
        "category": {
          "coding": [
            {
              "system": "http://snomed.info/sct",
              "code": "103693007",
              "display": "Diagnostic Procedure"
            }
          ]
        },
        "code": {
          "coding": [
            {
              "system": "http://snomed.info/sct",
              "code": "113024001"
            }
          ],
          "text": "Intervention, Performed: Cognitive Assessment"
        },
        "notDone": true,
        "performer": [
          {
            "role": {
              "coding": [
                {
                  "system": "http://snomed.info/sct",
                  "code": "112247003",
                  "display": "Medical doctor"
                }
              ]
            },
            "actor": {
              "reference": "Practitioner/practitioner-12208",
              "display": "Jay McCann Sawyer MD"
            }
          }
        ],
        "performedPeriod": {
          "start": "2015-09-28T08:00:00-04:00",
          "end": "2015-09-28T08:00:00-04:00"
        }
      },
      "request": {
        "method": "PUT",
        "url": "http://localhost:8080/fhir/baseDstu3/Procedure/Procedure-17"
      }
    },
    {
      "fullUrl": "http://localhost:8080/fhir/baseDstu3/Condition/Condition-18",
      "resource": {
        "resourceType": "Condition",
        "id": "Condition-18",
        "extension": [
          {
            "url": "http://hl7.org/fhir/StructureDefinition/organization-alias",
            "valueString": "2.16.840.1.113883.10.20.22.4.3"
          },
          {
            "url": "http://hl7.org/fhir/StructureDefinition/organization-alias",
            "valueString": "2.16.840.1.113883.10.20.24.3.137"
          }
        ],
        "clinicalStatus": "active",
        "verificationStatus": "confirmed",
        "category": {
          "coding": [
            {
              "system": "http://hl7.org/fhir/condition-category",
              "code": "encounter-diagnosis",
              "display": "Encounter Diagnosis"
            }
          ],
          "text": "This is a judgment made by a healthcare provider that the patient has a particular disease or condition"
        },
        "code": {
          "coding": [
            {
              "system": "http://snomed.info/sct",
              "code": "191449005"
            }
          ],
          "text": "Diagnosis: Dementia & Mental Degenerations"
        },
        "subject": {
          "reference": "Patient/patient-12214",
          "display": "2  N Geriatric Jr"
        },
        "assertedDate": "2013-04-22T20:30:02+00:00",
        "asserter": {
          "reference": "Practitioner/practitioner-12208",
          "display": "Jay McCann Sawyer MD"
        }
      },
      "request": {
        "method": "PUT",
        "url": "http://localhost:8080/fhir/baseDstu3/Condition/Condition-18"
      }
    },
    {
      "fullUrl": "http://localhost:8080/fhir/baseDstu3/Condition/Condition-19",
      "resource": {
        "resourceType": "Condition",
        "id": "Condition-19",
        "extension": [
          {
            "url": "http://hl7.org/fhir/StructureDefinition/organization-alias",
            "valueString": "2.16.840.1.113883.10.20.22.4.3"
          },
          {
            "url": "http://hl7.org/fhir/StructureDefinition/organization-alias",
            "valueString": "2.16.840.1.113883.10.20.24.3.137"
          }
        ],
        "clinicalStatus": "active",
        "verificationStatus": "confirmed",
        "category": {
          "coding": [
            {
              "system": "http://hl7.org/fhir/condition-category",
              "code": "encounter-diagnosis",
              "display": "Encounter Diagnosis"
            }
          ],
          "text": "This is a judgment made by a healthcare provider that the patient has a particular disease or condition"
        },
        "code": {
          "coding": [
            {
              "system": "http://snomed.info/sct",
              "code": "363414004"
            }
          ],
          "text": "Diagnosis: Malignant Neoplasm Of Colon"
        },
        "subject": {
          "reference": "Patient/patient-12214",
          "display": "2  N Geriatric Jr"
        },
        "assertedDate": "2011-02-01T20:30:02+00:00",
        "asserter": {
          "reference": "Practitioner/practitioner-12208",
          "display": "Jay McCann Sawyer MD"
        }
      },
      "request": {
        "method": "PUT",
        "url": "http://localhost:8080/fhir/baseDstu3/Condition/Condition-19"
      }
    },
    {
      "fullUrl": "http://localhost:8080/fhir/baseDstu3/Observation/Observation-20",
      "resource": {
        "resourceType": "Observation",
        "id": "Observation-20",
        "extension": [
          {
            "url": "http://hl7.org/fhir/StructureDefinition/organization-alias",
            "valueString": "2.16.840.1.113883.10.20.22.4.69"
          },
          {
            "url": "http://hl7.org/fhir/StructureDefinition/organization-alias",
            "valueString": "2.16.840.1.113883.10.20.24.3.69"
          }
        ],
        "identifier": [
          {
            "system": "http://hl7.org/fhir/identifier",
            "value": "1.3.6.1.4.1.115:579f4eb5aeac500a550c5c7e"
          }
        ],
        "status": "final",
        "code": {
          "coding": [
            {
              "system": "http://snomed.info/sct",
              "code": "310578008"
            }
          ],
          "text": "Risk Category Assessment: History Of Pneumococcal Vaccine"
        },
        "subject": {
          "reference": "Patient/patient-12214",
          "display": "2  N Geriatric Jr"
        },
        "issued": "2015-09-28T08:00:00-04:00",
        "performer": [
          {
            "reference": "Practitioner/practitioner-12208",
            "display": "Jay McCann Sawyer MD"
          }
        ]
      },
      "request": {
        "method": "PUT",
        "url": "http://localhost:8080/fhir/baseDstu3/Observation/Observation-20"
      }
    }
  ]
}