{
  "resourceType": "Bundle",
  "id": "load-patient-12215",
  "meta": {
    "versionId": "1",
    "lastUpdated": "2016-09-13T23:23:43.072+00:00"
  },
  "type": "transaction",
  "entry": [
    {
      "fullUrl": "http://localhost:8080/fhir/baseDstu3/Patient/patient-12215",
      "resource": {
        "resourceType": "Patient",
        "id": "Patient-12215",
        "identifier": [
          {
            "use": "official",
            "type": {
              "coding": [
                {
                  "system": "http://hl7.org/fhir/STU3/identifier-type",
                  "code": "SB",
                  "display": "Social Beneficiary Identifier"
                }
              ],
              "text": "Michigan Common Key Service Identifier"
            },
            "system": "http://mihin.org/fhir/cks",
            "value": "35d5bc74f95446f78f254c0200b88f9f"
          }
        ],
        "active": false,
        "name": [
          {
            "family": "N CA Male",
            "given": [
              "2 N"
            ]
          }
        ],
        "telecom": [
          {
            "system": "phone",
            "value": "810-555-9014",
            "use": "home"
          },
          {
            "system": "phone",
            "value": "810-555-6498",
            "use": "work"
          },
          {
            "extension": [
              {
                "url": "http://hl7.org/fhir/us/core/StructureDefinition/us-core-direct",
                "valueBoolean": true
              }
            ],
            "system": "email",
            "value": "name@email.com",
            "use": "home"
          }
        ],
        "gender": "male",
        "birthDate": "1942-09-01",
        "address": [
          {
            "line": [
              "202 Burlington Rd."
            ],
            "city": "Bedford",
            "state": "MA",
            "postalCode": "01730"
          }
        ]
      },
      "request": {
        "method": "PUT",
        "url": "http://localhost:8080/fhir/baseDstu3/Patient/patient-12215"
      }
    },
    {
      "fullUrl": "http://localhost:8080/fhir/baseDstu3/Practitioner/practitioner-12208",
      "resource": {
        "resourceType": "Practitioner",
        "id": "Practitioner-12208",
        "identifier": [
          {
            "use": "official",
            "type": {
              "coding": [
                {
                  "system": "http://hl7.org/fhir/STU3/identifier-type",
                  "code": "SB",
                  "display": "Social Beneficiary Identifier"
                }
              ],
              "text": "US Social Security Number"
            },
            "system": "http://hl7.org/fhir/sid/us-ssn",
            "value": "000012208"
          },
          {
            "use": "official",
            "type": {
              "coding": [
                {
                  "system": "http://hl7.org/fhir/v2/0203",
                  "code": "PRN",
                  "display": "Provider number"
                }
              ],
              "text": "US National Provider Identifier"
            },
            "system": "http://hl7.org/fhir/sid/us-npi",
            "value": "9999912208"
          },
          {
            "use": "official",
            "type": {
              "coding": [
                {
                  "system": "http://hl7.org/fhir/STU3/identifier-type",
                  "code": "SB",
                  "display": "Social Beneficiary Identifier"
                }
              ],
              "text": "Michigan Common Key Service Identifier"
            },
            "system": "http://mihin.org/fhir/cks",
            "value": "c6cc1bbaf5ea41c5a0d267e3a655def1"
          }
        ],
        "name": [
          {
            "family": "Sawyer",
            "given": [
              "Jay",
              "McCann"
            ],
            "suffix": [
              "MD"
            ]
          }
        ],
        "telecom": [
          {
            "system": "phone",
            "value": "989-555-8443",
            "use": "home"
          },
          {
            "system": "phone",
            "value": "989-555-5764",
            "use": "work"
          }
        ],
        "address": [
          {
            "line": [
              "77 S Pine Place"
            ],
            "city": "Beaverton",
            "state": "MI",
            "postalCode": "48612"
          }
        ],
        "gender": "male",
        "birthDate": "1970-08-07",
        "qualification": [
          {
            "identifier": [
              {
                "use": "official",
                "type": {
                  "coding": [
                    {
                      "system": "http://hl7.org/fhir/v2/0203",
                      "code": "MD",
                      "display": "Medical License number"
                    }
                  ],
                  "text": "Michigan Medical License"
                },
                "system": "http://michigan.gov/fhir/medical-license",
                "value": "LARA-12208",
                "assigner": {
                  "display": "State of Michigan"
                }
              }
            ],
            "code": {
              "coding": [
                {
                  "system": "http://michigan.gov/lara/license-type",
                  "code": "4305",
                  "display": "Medical Doctor"
                }
              ]
            },
            "issuer": {
              "reference": "Organization/organization-2000",
              "display": "Michigan Department of Licensing and Regulatory Affairs"
            }
          }
        ]
      },
      "request": {
        "method": "PUT",
        "url": "http://localhost:8080/fhir/baseDstu3/Practitioner/practitioner-12208"
      }
    },
    {
      "fullUrl": "http://localhost:8080/fhir/baseDstu3/Organization/organization-2002",
      "resource": {
        "resourceType": "Organization",
        "id": "Organization-2002",
        "extension": [
          {
            "url": "http://hl7.org/fhir/StructureDefinition/organization-alias",
            "valueIdentifier": {
              "use": "official",
              "type": {
                "coding": [
                  {
                    "system": "http://gov.michigan.fhir.organization-license-type",
                    "code": "PRACTICE"
                  }
                ],
                "text": "Michigan Medical Practice License"
              },
              "system": "http://gov.michigan.fhir.organization-license",
              "value": "LARA-ORG-2002",
              "assigner": {
                "display": "State of Michigan"
              }
            }
          },
          {
            "url": "http://hl7.org/fhir/StructureDefinition/organization-alias",
            "valueCodeableConcept": {
              "coding": [
                {
                  "system": "http://org.nucc.taxonomy",
                  "code": "261Q00000X",
                  "display": "Clinic/Center"
                }
              ]
            }
          },
          {
            "url": "http://hl7.org/fhir/StructureDefinition/organization-alias",
            "valueReference": {
              "reference": "ElectronicService/ElectronicService-50",
              "display": "orgname@email.com"
            }
          }
        ],
        "identifier": [
          {
            "use": "official",
            "system": "http://www.hl7.org/oid/",
            "value": "1.2.3.4.5.9.99.999.9999.2002"
          },
          {
            "use": "official",
            "type": {
              "coding": [
                {
                  "system": "http://hl7.org/fhir/v2/0203",
                  "code": "PRN",
                  "display": "Provider number"
                }
              ],
              "text": "US National Provider Identifier"
            },
            "system": "http://hl7.org/fhir/sid/us-npi",
            "value": "9999992002"
          }
        ],
        "active": true,
        "type": {
          "text": "Clinic/Center"
        },
        "name": "Sun Hill Physicians",
        "telecom": [
          {
            "system": "phone",
            "value": "231-555-9381",
            "use": "work"
          }
        ],
        "address": [
          {
            "line": [
              "261 Ninth Street"
            ],
            "city": "Bitely",
            "state": "MI",
            "postalCode": "49309"
          }
        ]
      },
      "request": {
        "method": "PUT",
        "url": "http://localhost:8080/fhir/baseDstu3/Organization/organization-2002"
      }
    },
    {
      "fullUrl": "http://localhost:8080/fhir/baseDstu3/Encounter/Encounter-21",
      "resource": {
        "resourceType": "Encounter",
        "id": "Encounter-21",
        "extension": [
          {
            "url": "http://hl7.org/fhir/StructureDefinition/organization-alias",
            "valueString": "2.16.840.1.113883.10.20.22.4.49"
          },
          {
            "url": "http://hl7.org/fhir/StructureDefinition/organization-alias",
            "valueString": "2.16.840.1.113883.10.20.24.3.23"
          }
        ],
        "status": "finished",
        "class": {
          "system": "http://hl7.org/fhir/v3/ActCode",
          "code": "AMB",
          "display": "ambulatory"
        },
        "type": [
          {
            "coding": [
              {
                "system": "http://snomed.info/sct",
                "code": "390906007"
              }
            ],
            "text": "Encounter, Performed: Encounter Influenza"
          }
        ],
        "subject": {
          "reference": "Patient/patient-12215",
          "display": "2 N  N CA Male"
        },
        "participant": [
          {
            "period": {
              "start": "2014-12-01T08:00:00-05:00",
              "end": "2014-12-01T09:00:00-05:00"
            },
            "individual": {
              "reference": "Practitioner/practitioner-12208",
              "display": "Jay McCann Sawyer MD"
            }
          }
        ],
        "serviceProvider": {
          "reference": "Organization/organization-2002",
          "display": "Sun Hill Physicians"
        }
      },
      "request": {
        "method": "PUT",
        "url": "http://localhost:8080/fhir/baseDstu3/Encounter/Encounter-21"
      }
    },
    {
      "fullUrl": "http://localhost:8080/fhir/baseDstu3/Encounter/Encounter-22",
      "resource": {
        "resourceType": "Encounter",
        "id": "Encounter-22",
        "extension": [
          {
            "url": "http://hl7.org/fhir/StructureDefinition/organization-alias",
            "valueString": "2.16.840.1.113883.10.20.22.4.49"
          },
          {
            "url": "http://hl7.org/fhir/StructureDefinition/organization-alias",
            "valueString": "2.16.840.1.113883.10.20.24.3.23"
          }
        ],
        "status": "finished",
        "class": {
          "system": "http://hl7.org/fhir/v3/ActCode",
          "code": "AMB",
          "display": "ambulatory"
        },
        "type": [
          {
            "coding": [
              {
                "system": "http://www.ama-assn.org/go/cpt",
                "code": "99213"
              }
            ],
            "text": "Encounter, Performed: Office Visit"
          }
        ],
        "subject": {
          "reference": "Patient/patient-12215",
          "display": "2 N  N CA Male"
        },
        "participant": [
          {
            "period": {
              "start": "2015-07-13T08:00:00-04:00",
              "end": "2015-07-13T09:00:00-04:00"
            },
            "individual": {
              "reference": "Practitioner/practitioner-12208",
              "display": "Jay McCann Sawyer MD"
            }
          }
        ],
        "serviceProvider": {
          "reference": "Organization/organization-2002",
          "display": "Sun Hill Physicians"
        }
      },
      "request": {
        "method": "PUT",
        "url": "http://localhost:8080/fhir/baseDstu3/Encounter/Encounter-22"
      }
    },
    {
      "fullUrl": "http://localhost:8080/fhir/baseDstu3/Encounter/Encounter-23",
      "resource": {
        "resourceType": "Encounter",
        "id": "Encounter-23",
        "extension": [
          {
            "url": "http://hl7.org/fhir/StructureDefinition/organization-alias",
            "valueString": "2.16.840.1.113883.10.20.22.4.49"
          },
          {
            "url": "http://hl7.org/fhir/StructureDefinition/organization-alias",
            "valueString": "2.16.840.1.113883.10.20.24.3.23"
          }
        ],
        "status": "finished",
        "class": {
          "system": "http://hl7.org/fhir/v3/ActCode",
          "code": "AMB",
          "display": "ambulatory"
        },
        "type": [
          {
            "coding": [
              {
                "system": "http://www.ama-assn.org/go/cpt",
                "code": "99213"
              }
            ],
            "text": "Encounter, Performed: Office Visit"
          }
        ],
        "subject": {
          "reference": "Patient/patient-12215",
          "display": "2 N  N CA Male"
        },
        "participant": [
          {
            "period": {
              "start": "2015-07-23T08:00:00-04:00",
              "end": "2015-07-23T09:00:00-04:00"
            },
            "individual": {
              "reference": "Practitioner/practitioner-12208",
              "display": "Jay McCann Sawyer MD"
            }
          }
        ],
        "serviceProvider": {
          "reference": "Organization/organization-2002",
          "display": "Sun Hill Physicians"
        }
      },
      "request": {
        "method": "PUT",
        "url": "http://localhost:8080/fhir/baseDstu3/Encounter/Encounter-23"
      }
    },
    {
      "fullUrl": "http://localhost:8080/fhir/baseDstu3/Coverage/Coverage-24",
      "resource": {
        "resourceType": "Coverage",
        "id": "Coverage-24",
        "extension": [
          {
            "url": "http://hl7.org/fhir/StructureDefinition/organization-alias",
            "valueString": "2.16.840.1.113883.10.20.24.3.55"
          }
        ],
        "identifier": [
          {
            "system": "http://hl7.org/fhir/identifier",
            "value": "1.3.6.1.4.1.115:579f4eb5aeac500a550c5bf4"
          }
        ],
        "status": "active",
        "type": {
          "system": "2.16.840.1.113883.3.221.5",
          "code": "349"
        },
        "policyHolder": {
          "reference": "Patient/patient-12215",
          "display": "2 N  N CA Male"
        },
        "beneficiary": {
          "reference": "Patient/patient-12215",
          "display": "2 N  N CA Male"
        },
        "relationship": {
          "system": "http://hl7.org/fhir/policyholder-relationship",
          "code": "self"
        },
        "period": {
          "start": "2008-01-01T05:00:00-05:00"
        },
        "payor": [
          {
            "reference": "Organization/organization-2002",
            "display": "Sun Hill Physicians"
          }
        ]
      },
      "request": {
        "method": "PUT",
        "url": "http://localhost:8080/fhir/baseDstu3/Coverage/Coverage-24"
      }
    },
    {
      "fullUrl": "http://localhost:8080/fhir/baseDstu3/Procedure/Procedure-25",
      "resource": {
        "resourceType": "Procedure",
        "id": "Procedure-25",
        "extension": [
          {
            "url": "http://hl7.org/fhir/StructureDefinition/organization-alias",
            "valueString": "2.16.840.1.113883.10.20.24.3.64"
          },
          {
            "url": "http://hl7.org/fhir/StructureDefinition/organization-alias",
            "valueString": "2.16.840.1.113883.10.20.22.4.14"
          }
        ],
        "identifier": [
          {
            "system": "http://hl7.org/fhir/identifier",
            "value": "1.3.6.1.4.1.115:579f4eb5aeac500a550c5bf0"
          }
        ],
        "status": "completed",
        "category": {
          "coding": [
            {
              "system": "http://snomed.info/sct",
              "code": "387713003",
              "display": "Surgical Procedure"
            }
          ]
        },
        "code": {
          "coding": [
            {
              "system": "http://snomed.info/sct",
              "code": "116783008"
            }
          ],
          "text": "Procedure, Performed: Pathology Evaluation"
        },
        "subject": {
          "reference": "Patient/patient-12215",
          "display": "2 N  N CA Male"
        },
        "performedPeriod": {
          "start": "2015-07-13T08:15:00-04:00",
          "end": "2015-07-13T08:15:00-04:00"
        },
        "performer": [
          {
            "role": {
              "coding": [
                {
                  "system": "http://hl7.org/fhir/ValueSet/performer-role",
                  "code": "112247003",
                  "display": "Medical doctor"
                }
              ],
              "actor": {
                "reference": "Practitioner/practitioner-12208",
                "display": "Jay McCann Sawyer MD"
              }
            }
          }
        ]
      },
      "request": {
        "method": "PUT",
        "url": "http://localhost:8080/fhir/baseDstu3/Procedure/Procedure-25"
      }
    },
    {
      "fullUrl": "http://localhost:8080/fhir/baseDstu3/MedicationRequest/MedicationRequest-26",
      "resource": {
        "resourceType": "MedicationRequest",
        "id": "MedicationRequest-26",
        "extension": [
          {
            "url": "http://hl7.org/fhir/StructureDefinition/organization-alias",
            "valueString": "2.16.840.1.113883.10.20.22.4.42"
          },
          {
            "url": "http://hl7.org/fhir/StructureDefinition/organization-alias",
            "valueString": "2.16.840.1.113883.10.20.24.3.47"
          }
        ],
        "identifier": [
          {
            "system": "http://hl7.org/fhir/identifier",
            "value": "1.3.6.1.4.1.115:579f4eb5aeac500a550c5bed"
          }
        ],
        "status": "completed",
        "medicationReference": {
          "reference": "http://example.org/fhir/Medication/example",
          "display": "example medication"
        },
        "subject": {
          "reference": "Patient/patient-12215",
          "display": "2 N  N CA Male"
        }
      },
      "request": {
        "method": "PUT",
        "url": "http://localhost:8080/fhir/baseDstu3/MedicationRequest/MedicationRequest-26"
      }
    },
    {
      "fullUrl": "http://localhost:8080/fhir/baseDstu3/Condition/Condition-27",
      "resource": {
        "resourceType": "Condition",
        "id": "Condition-27",
        "extension": [
          {
            "url": "http://hl7.org/fhir/StructureDefinition/organization-alias",
            "valueString": "2.16.840.1.113883.10.20.22.4.3"
          },
          {
            "url": "http://hl7.org/fhir/StructureDefinition/organization-alias",
            "valueString": "2.16.840.1.113883.10.20.24.3.137"
          }
        ],
        "clinicalStatus": "active",
        "verificationStatus": "confirmed",
        "category": {
          "coding": [
            {
              "system": "http://hl7.org/fhir/condition-category",
              "code": "diagnosis",
              "display": "Diagnosis"
            }
          ],
          "text": "This is a judgment made by a healthcare provider that the patient has a particular disease or condition"
        },
        "code": {
          "coding": [
            {
              "system": "http://snomed.info/sct",
              "code": "285312008"
            }
          ],
          "text": "Diagnosis: Colon Cancer"
        },
        "subject": {
          "reference": "Patient/patient-12215",
          "display": "2 N  N CA Male"
        },
        "assertedDate": "2015-07-13T20:30:02+00:00",
        "asserter": {
          "reference": "Practitioner/practitioner-12208",
          "display": "Jay McCann Sawyer MD"
        }
      },
      "request": {
        "method": "PUT",
        "url": "http://localhost:8080/fhir/baseDstu3/Condition/Condition-27"
      }
    },
    {
      "fullUrl": "http://localhost:8080/fhir/baseDstu3/Condition/Condition-28",
      "resource": {
        "resourceType": "Condition",
        "id": "Condition-28",
        "extension": [
          {
            "url": "http://hl7.org/fhir/StructureDefinition/organization-alias",
            "valueString": "2.16.840.1.113883.10.20.22.4.3"
          },
          {
            "url": "http://hl7.org/fhir/StructureDefinition/organization-alias",
            "valueString": "2.16.840.1.113883.10.20.24.3.137"
          }
        ],
        "clinicalStatus": "active",
        "verificationStatus": "confirmed",
        "category": {
          "coding": [
            {
              "system": "http://hl7.org/fhir/condition-category",
              "code": "diagnosis",
              "display": "Diagnosis"
            }
          ],
          "text": "This is a judgment made by a healthcare provider that the patient has a particular disease or condition"
        },
        "code": {
          "coding": [
            {
              "system": "http://snomed.info/sct",
              "code": "285312008"
            }
          ],
          "text": "Diagnosis: Colon Cancer"
        },
        "subject": {
          "reference": "Patient/patient-12215",
          "display": "2 N  N CA Male"
        },
        "assertedDate": "2015-07-13T20:30:02+00:00",
        "asserter": {
          "reference": "Practitioner/practitioner-12208",
          "display": "Jay McCann Sawyer MD"
        }
      },
      "request": {
        "method": "PUT",
        "url": "http://localhost:8080/fhir/baseDstu3/Condition/Condition-28"
      }
    },
    {
      "fullUrl": "http://localhost:8080/fhir/baseDstu3/Condition/Condition-29",
      "resource": {
        "resourceType": "Condition",
        "id": "Condition-29",
        "extension": [
          {
            "url": "http://hl7.org/fhir/StructureDefinition/organization-alias",
            "valueString": "2.16.840.1.113883.10.20.22.4.3"
          },
          {
            "url": "http://hl7.org/fhir/StructureDefinition/organization-alias",
            "valueString": "2.16.840.1.113883.10.20.24.3.137"
          }
        ],
        "clinicalStatus": "active",
        "verificationStatus": "confirmed",
        "category": {
          "coding": [
            {
              "system": "http://hl7.org/fhir/condition-category",
              "code": "diagnosis",
              "display": "Diagnosis"
            }
          ],
          "text": "This is a judgment made by a healthcare provider that the patient has a particular disease or condition"
        },
        "code": {
          "coding": [
            {
              "system": "http://snomed.info/sct",
              "code": "285312008"
            }
          ],
          "text": "Diagnosis: Colon Cancer"
        },
        "subject": {
          "reference": "Patient/patient-12215",
          "display": "2 N  N CA Male"
        },
        "assertedDate": "2015-07-13T20:30:02+00:00",
        "asserter": {
          "reference": "Practitioner/practitioner-12208",
          "display": "Jay McCann Sawyer MD"
        }
      },
      "request": {
        "method": "PUT",
        "url": "http://localhost:8080/fhir/baseDstu3/Condition/Condition-29"
      }
    },
    {
      "fullUrl": "http://localhost:8080/fhir/baseDstu3/MedicationAdministration/MedicationAdministration-30",
      "resource": {
        "resourceType": "MedicationAdministration",
        "id": "MedicationAdministration-30",
        "extension": [
          {
            "url": "http://hl7.org/fhir/StructureDefinition/organization-alias",
            "valueString": "2.16.840.1.113883.10.20.24.3.42"
          }
        ],
        "status": "completed",
        "medicationCodeableConcept": {
          "coding": [
            {
              "system": "urn:oid:2.16.840.1.113883.6.88",
              "code": "239177"
            }
          ],
          "text": "Medication, Administered: Chemotherapy For Colon Cancer   Fluorouracil"
        },
        "subject": {
          "reference": "Patient/patient-12215",
          "display": "2 N  N CA Male"
        },
        "effectivePeriod": {
          "start": "2015-07-23T08:15:00-04:00",
          "end": "2015-07-23T08:15:00-04:00"
        },
        "performer": [
          {
            "actor": {
              "reference": "Practitioner/practitioner-12208",
              "display": "Jay McCann Sawyer MD"
            }
          }
        ]
      },
      "request": {
        "method": "PUT",
        "url": "http://localhost:8080/fhir/baseDstu3/MedicationAdministration/MedicationAdministration-30"
      }
    },
    {
      "fullUrl": "http://localhost:8080/fhir/baseDstu3/MedicationAdministration/MedicationAdministration-31",
      "resource": {
        "resourceType": "MedicationAdministration",
        "id": "MedicationAdministration-31",
        "extension": [
          {
            "url": "http://hl7.org/fhir/StructureDefinition/organization-alias",
            "valueString": "2.16.840.1.113883.10.20.24.3.42"
          }
        ],
        "status": "completed",
        "medicationCodeableConcept": {
          "coding": [
            {
              "system": "urn:oid:2.16.840.1.113883.6.88",
              "code": "197860"
            }
          ],
          "text": "Medication, Administered: Chemotherapy For Colon Cancer   Leucovorin And Levo Leucovorin"
        },
        "subject": {
          "reference": "Patient/patient-12215",
          "display": "2 N  N CA Male"
        },
        "effectivePeriod": {
          "start": "2015-07-23T08:15:00-04:00",
          "end": "2015-07-23T08:15:00-04:00"
        },
        "performer": [
          {
            "actor": {
              "reference": "Practitioner/practitioner-12208",
              "display": "Jay McCann Sawyer MD"
            }
          }
        ]
      },
      "request": {
        "method": "PUT",
        "url": "http://localhost:8080/fhir/baseDstu3/MedicationAdministration/MedicationAdministration-31"
      }
    },
    {
      "fullUrl": "http://localhost:8080/fhir/baseDstu3/MedicationRequest/MedicationRequest-32",
      "resource": {
        "resourceType": "MedicationRequest",
        "id": "MedicationRequest-32",
        "extension": [
          {
            "url": "http://hl7.org/fhir/StructureDefinition/organization-alias",
            "valueString": "2.16.840.1.113883.10.20.22.4.42"
          },
          {
            "url": "http://hl7.org/fhir/StructureDefinition/organization-alias",
            "valueString": "2.16.840.1.113883.10.20.24.3.47"
          }
        ],
        "identifier": [
          {
            "system": "http://hl7.org/fhir/identifier",
            "value": "1.3.6.1.4.1.115:579f4eb5aeac500a550c5bec"
          }
        ],
        "status": "completed",
        "medicationReference": {
          "reference": "http://example.org/fhir/Medication/example",
          "display": "example medication"
        },
        "subject": {
          "reference": "Patient/patient-12215",
          "display": "2 N  N CA Male"
        }
      },
      "request": {
        "method": "PUT",
        "url": "http://localhost:8080/fhir/baseDstu3/MedicationRequest/MedicationRequest-32"
      }
    },
    {
      "fullUrl": "http://localhost:8080/fhir/baseDstu3/Condition/Condition-33",
      "resource": {
        "resourceType": "Condition",
        "id": "Condition-33",
        "extension": [
          {
            "url": "http://hl7.org/fhir/StructureDefinition/organization-alias",
            "valueString": "2.16.840.1.113883.10.20.22.4.3"
          },
          {
            "url": "http://hl7.org/fhir/StructureDefinition/organization-alias",
            "valueString": "2.16.840.1.113883.10.20.24.3.137"
          }
        ],
        "clinicalStatus": "active",
        "verificationStatus": "confirmed",
        "category": {
          "coding": [
            {
              "system": "http://hl7.org/fhir/condition-category",
              "code": "diagnosis",
              "display": "Diagnosis"
            }
          ],
          "text": "This is a judgment made by a healthcare provider that the patient has a particular disease or condition"
        },
        "code": {
          "coding": [
            {
              "system": "http://snomed.info/sct",
              "code": "285312008"
            }
          ],
          "text": "Diagnosis: Colon Cancer"
        },
        "subject": {
          "reference": "Patient/patient-12215",
          "display": "2 N  N CA Male"
        },
        "assertedDate": "2015-07-13T20:30:02+00:00",
        "asserter": {
          "reference": "Practitioner/practitioner-12208",
          "display": "Jay McCann Sawyer MD"
        }
      },
      "request": {
        "method": "PUT",
        "url": "http://localhost:8080/fhir/baseDstu3/Condition/Condition-33"
      }
    },
    {
      "fullUrl": "http://localhost:8080/fhir/baseDstu3/MedicationAdministration/MedicationAdministration-34",
      "resource": {
        "resourceType": "MedicationAdministration",
        "id": "MedicationAdministration-34",
        "extension": [
          {
            "url": "http://hl7.org/fhir/StructureDefinition/organization-alias",
            "valueString": "2.16.840.1.113883.10.20.24.3.140"
          }
        ],
        "status": "completed",
        "medicationCodeableConcept": {
          "coding": [
            {
              "system": "urn:oid:2.16.840.1.113883.12.292",
              "code": "155"
            }
          ],
          "text": "Immunization, Administered: Influenza Vaccine"
        },
        "subject": {
          "reference": "Patient/patient-12215",
          "display": "2 N  N CA Male"
        },
        "effectivePeriod": {
          "start": "2014-12-01T08:10:00-05:00",
          "end": "2014-12-01T08:10:00-05:00"
        },
        "performer": [
          {
            "actor": {
              "reference": "Practitioner/practitioner-12208",
              "display": "Jay McCann Sawyer MD"
            }
          }
        ]
      },
      "request": {
        "method": "PUT",
        "url": "http://localhost:8080/fhir/baseDstu3/MedicationAdministration/MedicationAdministration-34"
      }
    }
  ]
}