{
  "resourceType": "Bundle",
  "id": "Earl Herbert Newman-6527-Encounter-2475",
  "type": "transaction",
  "entry": [
    {
      "fullUrl": "http://localhost:8080/cqf-ruler/baseDstu3/Encounter/Encounter-2475",
      "resource": {
        "resourceType": "Encounter",
        "id": "Encounter-2475",
        "status": "finished",
        "class": {
          "system": "http://hl7.org/fhir/encounter-class",
          "code": "outpatient",
          "display": "Inpatient"
        },
        "subject": {
          "reference": "Patient/Patient-6527",
          "display": "Earl Herbert Newman"
        },
        "participant": [
          {
            "period": {
              "start": "2013-12-20T20:00:00-05:00",
              "end": "2013-12-20T20:00:00-05:00"
            },
            "individual": {
              "reference": "Practitioner/Practitioner-2524",
              "display": "Willie Vincent Riddle MD"
            }
          }
        ],
        "period": {
          "start": "2013-12-20T20:00:00-05:00",
          "end": "2013-12-20T20:00:00-05:00"
        },
        "location": [
          {
            "location": {
              "reference": "Location/Location-1103",
              "display": "Acme Medical Center"
            }
          }
        ],
        "serviceProvider": {
          "reference": "Organization/Organization-1103",
          "display": "Acme Medical Center"
        }
      },
      "request": {
        "method": "PUT",
        "url": "http://localhost:8080/cqf-ruler/baseDstu3/Encounter/Encounter-2475"
      }
    },
    {
      "fullUrl": "http://localhost:8080/cqf-ruler/baseDstu3/Immunization/Immunization-522403",
      "resource": {
        "resourceType": "Immunization",
        "id": "Immunization-522403",
        "status": "completed",
        "notGiven": false,
        "vaccineCode": {
          "coding": [
            {
              "system": "http://hl7.org/fhir/sid/cvx",
              "code": "140",
              "display": "Influenza, seasonal, injectable, preservative free"
            }
          ]
        },
        "patient": {
          "reference": "Patient/Patient-6527",
          "display": "Earl Herbert Newman"
        },
        "date": "2013-12-20T20:00:00-05:00",
        "primarySource": true,
        "location": {
          "reference": "Location/Location-1103",
          "display": "Acme Medical Center"
        },
        "practitioner": [
          {
            "actor": {
              "reference": "Practitioner/Practitioner-2524",
              "display": "Willie Vincent Riddle MD"
            }
          }
        ]
      },
      "request": {
        "method": "PUT",
        "url": "http://localhost:8080/cqf-ruler/baseDstu3/Immunization/Immunization-522403"
      }
    },
    {
      "fullUrl": "http://localhost:8080/cqf-ruler/baseDstu3/Immunization/Immunization-522404",
      "resource": {
        "resourceType": "Immunization",
        "id": "Immunization-522404",
        "status": "completed",
        "notGiven": false,
        "vaccineCode": {
          "coding": [
            {
              "system": "http://hl7.org/fhir/sid/cvx",
              "code": "114",
              "display": "meningococcal MCV4P"
            }
          ]
        },
        "patient": {
          "reference": "Patient/Patient-6527",
          "display": "Earl Herbert Newman"
        },
        "date": "2013-12-20T20:00:00-05:00",
        "primarySource": true,
        "location": {
          "reference": "Location/Location-1103",
          "display": "Acme Medical Center"
        },
        "practitioner": [
          {
            "actor": {
              "reference": "Practitioner/Practitioner-2524",
              "display": "Willie Vincent Riddle MD"
            }
          }
        ]
      },
      "request": {
        "method": "PUT",
        "url": "http://localhost:8080/cqf-ruler/baseDstu3/Immunization/Immunization-522404"
      }
    },
    {
      "fullUrl": "http://localhost:8080/cqf-ruler/baseDstu3/Observation/Observation-548184",
      "resource": {
        "resourceType": "Observation",
        "id": "Observation-548184",
        "status": "final",
        "code": {
          "coding": [
            {
              "system": "http://loinc.org",
              "code": "8302-2",
              "display": "Height"
            }
          ]
        },
        "subject": {
          "reference": "Patient/Patient-6527",
          "display": "Earl Herbert Newman"
        },
        "context": {
          "reference": "Encounter/Encounter-2475",
          "display": "Acme Medical Center"
        },
        "effectiveDateTime": "2013-12-20T20:00:00-05:00",
        "performer": [
          {
            "reference": "Practitioner/Practitioner-2524",
            "display": "Willie Vincent Riddle MD"
          }
        ],
        "valueQuantity": {
          "value": 178.4,
          "unit": "cm"
        }
      },
      "request": {
        "method": "PUT",
        "url": "http://localhost:8080/cqf-ruler/baseDstu3/Observation/Observation-548184"
      }
    },
    {
      "fullUrl": "http://localhost:8080/cqf-ruler/baseDstu3/Observation/Observation-548185",
      "resource": {
        "resourceType": "Observation",
        "id": "Observation-548185",
        "status": "final",
        "code": {
          "coding": [
            {
              "system": "http://loinc.org",
              "code": "29463-7",
              "display": "Weight"
            }
          ]
        },
        "subject": {
          "reference": "Patient/Patient-6527",
          "display": "Earl Herbert Newman"
        },
        "context": {
          "reference": "Encounter/Encounter-2475",
          "display": "Acme Medical Center"
        },
        "effectiveDateTime": "2013-12-20T20:00:00-05:00",
        "performer": [
          {
            "reference": "Practitioner/Practitioner-2524",
            "display": "Willie Vincent Riddle MD"
          }
        ],
        "valueQuantity": {
          "value": 0.0,
          "unit": "kg"
        }
      },
      "request": {
        "method": "PUT",
        "url": "http://localhost:8080/cqf-ruler/baseDstu3/Observation/Observation-548185"
      }
    },
    {
      "fullUrl": "http://localhost:8080/cqf-ruler/baseDstu3/Observation/Observation-548186",
      "resource": {
        "resourceType": "Observation",
        "id": "Observation-548186",
        "status": "final",
        "code": {
          "coding": [
            {
              "system": "http://loinc.org",
              "code": "39156-5",
              "display": "BMI"
            }
          ]
        },
        "subject": {
          "reference": "Patient/Patient-6527",
          "display": "Earl Herbert Newman"
        },
        "context": {
          "reference": "Encounter/Encounter-2475",
          "display": "Acme Medical Center"
        },
        "effectiveDateTime": "2013-12-20T20:00:00-05:00",
        "performer": [
          {
            "reference": "Practitioner/Practitioner-2524",
            "display": "Willie Vincent Riddle MD"
          }
        ],
        "valueQuantity": {
          "value": 0.0,
          "unit": "kg/m2"
        }
      },
      "request": {
        "method": "PUT",
        "url": "http://localhost:8080/cqf-ruler/baseDstu3/Observation/Observation-548186"
      }
    },
    {
      "fullUrl": "http://localhost:8080/cqf-ruler/baseDstu3/Observation/Observation-548187",
      "resource": {
        "resourceType": "Observation",
        "id": "Observation-548187",
        "status": "final",
        "code": {
          "coding": [
            {
              "system": "http://loinc.org",
              "code": "8310-5",
              "display": "Temperature"
            }
          ]
        },
        "subject": {
          "reference": "Patient/Patient-6527",
          "display": "Earl Herbert Newman"
        },
        "context": {
          "reference": "Encounter/Encounter-2475",
          "display": "Acme Medical Center"
        },
        "effectiveDateTime": "2013-12-20T20:00:00-05:00",
        "performer": [
          {
            "reference": "Practitioner/Practitioner-2524",
            "display": "Willie Vincent Riddle MD"
          }
        ],
        "valueQuantity": {
          "value": 37.0,
          "unit": "C"
        }
      },
      "request": {
        "method": "PUT",
        "url": "http://localhost:8080/cqf-ruler/baseDstu3/Observation/Observation-548187"
      }
    },
    {
      "fullUrl": "http://localhost:8080/cqf-ruler/baseDstu3/Observation/Observation-548188",
      "resource": {
        "resourceType": "Observation",
        "id": "Observation-548188",
        "status": "final",
        "code": {
          "coding": [
            {
              "system": "http://loinc.org",
              "code": "8459-0",
              "display": "Systolic Blood Pressure"
            }
          ]
        },
        "subject": {
          "reference": "Patient/Patient-6527",
          "display": "Earl Herbert Newman"
        },
        "context": {
          "reference": "Encounter/Encounter-2475",
          "display": "Acme Medical Center"
        },
        "effectiveDateTime": "2013-12-20T20:00:00-05:00",
        "performer": [
          {
            "reference": "Practitioner/Practitioner-2524",
            "display": "Willie Vincent Riddle MD"
          }
        ],
        "valueQuantity": {
          "value": 119.2593415316249,
          "unit": "mmHg"
        }
      },
      "request": {
        "method": "PUT",
        "url": "http://localhost:8080/cqf-ruler/baseDstu3/Observation/Observation-548188"
      }
    },
    {
      "fullUrl": "http://localhost:8080/cqf-ruler/baseDstu3/Observation/Observation-548189",
      "resource": {
        "resourceType": "Observation",
        "id": "Observation-548189",
        "status": "final",
        "code": {
          "coding": [
            {
              "system": "http://loinc.org",
              "code": "8453-3",
              "display": "Diastolic Blood Pressure"
            }
          ]
        },
        "subject": {
          "reference": "Patient/Patient-6527",
          "display": "Earl Herbert Newman"
        },
        "context": {
          "reference": "Encounter/Encounter-2475",
          "display": "Acme Medical Center"
        },
        "effectiveDateTime": "2013-12-20T20:00:00-05:00",
        "performer": [
          {
            "reference": "Practitioner/Practitioner-2524",
            "display": "Willie Vincent Riddle MD"
          }
        ],
        "valueQuantity": {
          "value": 73.65153770420412,
          "unit": "mmHg"
        }
      },
      "request": {
        "method": "PUT",
        "url": "http://localhost:8080/cqf-ruler/baseDstu3/Observation/Observation-548189"
      }
    },
    {
      "fullUrl": "http://localhost:8080/cqf-ruler/baseDstu3/DiagnosticReport/DiagnosticReport-548183",
      "resource": {
        "resourceType": "DiagnosticReport",
        "id": "DiagnosticReport-548183",
        "status": "final",
        "code": {
          "coding": [
            {
              "system": "http://loinc.org",
              "code": "8716-3",
              "display": "Vital Signs Panel"
            }
          ]
        },
        "subject": {
          "reference": "Patient/Patient-6527",
          "display": "Earl Herbert Newman"
        },
        "context": {
          "reference": "Encounter/Encounter-2475",
          "display": "Acme Medical Center"
        },
        "effectivePeriod": {
          "start": "2013-12-20T20:00:00-05:00",
          "end": "2013-12-20T20:00:00-05:00"
        },
        "issued": "2013-12-20T20:00:00.000-05:00",
        "result": [
          {
            "reference": "Observation/Observation-548184",
            "display": "Height"
          },
          {
            "reference": "Observation/Observation-548185",
            "display": "Weight"
          },
          {
            "reference": "Observation/Observation-548186",
            "display": "BMI"
          },
          {
            "reference": "Observation/Observation-548187",
            "display": "Temperature"
          },
          {
            "reference": "Observation/Observation-548188",
            "display": "Systolic Blood Pressure"
          },
          {
            "reference": "Observation/Observation-548189",
            "display": "Diastolic Blood Pressure"
          }
        ]
      },
      "request": {
        "method": "PUT",
        "url": "http://localhost:8080/cqf-ruler/baseDstu3/DiagnosticReport/DiagnosticReport-548183"
      }
    }
  ]
}