{
  "resourceType": "Bundle",
  "id": "Dora-Marian-Neal-6543-Encounter-3641",
  "type": "transaction",
  "entry": [
    {
      "fullUrl": "http://localhost:8080/cqf-ruler/baseDstu3/Encounter/Encounter-3641",
      "resource": {
        "resourceType": "Encounter",
        "id": "Encounter-3641",
        "meta": {
          "profile": [
            "http://hl7.org/fhir/us/hedis/StructureDefinition/hedis-encounter"
          ]
        },
        "status": "finished",
        "class": {
          "system": "http://hl7.org/fhir/encounter-class",
          "code": "outpatient",
          "display": "Outpatient"
        },
        "subject": {
          "reference": "Patient/Patient-6543",
          "display": "Dora Marian Neal"
        },
        "participant": [
          {
            "period": {
              "start": "2013-10-18T00:00:00-04:00",
              "end": "2013-10-18T00:00:00-04:00"
            },
            "individual": {
              "reference": "Practitioner/Practitioner-2520",
              "display": "Kimberly Christy Ashley MD"
            }
          }
        ],
        "period": {
          "start": "2013-10-18T00:00:00-04:00",
          "end": "2013-10-18T00:00:00-04:00"
        },
        "location": [
          {
            "location": {
              "reference": "Location/Location-1105",
              "display": "Bayside Medical Group"
            }
          }
        ],
        "serviceProvider": {
          "reference": "Organization/Organization-1105",
          "display": "Bayside Medical Group"
        }
      },
      "request": {
        "method": "PUT",
        "url": "http://localhost:8080/cqf-ruler/baseDstu3/Encounter/Encounter-3641"
      }
    },
    {
      "fullUrl": "http://localhost:8080/cqf-ruler/baseDstu3/Immunization/Immunization-557816",
      "resource": {
        "resourceType": "Immunization",
        "id": "Immunization-557816",
        "status": "completed",
        "notGiven": false,
        "vaccineCode": {
          "coding": [
            {
              "system": "http://hl7.org/fhir/sid/cvx",
              "code": "140",
              "display": "Influenza, seasonal, injectable, preservative free"
            }
          ]
        },
        "patient": {
          "reference": "Patient/Patient-6543",
          "display": "Dora Marian Neal"
        },
        "date": "2013-10-18T00:00:00-04:00",
        "primarySource": true,
        "location": {
          "reference": "Location/Location-1105",
          "display": "Bayside Medical Group"
        },
        "practitioner": [
          {
            "actor": {
              "reference": "Practitioner/Practitioner-2520",
              "display": "Kimberly Christy Ashley MD"
            }
          }
        ]
      },
      "request": {
        "method": "PUT",
        "url": "http://localhost:8080/cqf-ruler/baseDstu3/Immunization/Immunization-557816"
      }
    },
    {
      "fullUrl": "http://localhost:8080/cqf-ruler/baseDstu3/Procedure/Procedure-586554",
      "resource": {
        "resourceType": "Procedure",
        "id": "Procedure-586554",
        "meta": {
          "profile": [
            "http://hl7.org/fhir/us/hedis/StructureDefinition/hedis-procedure"
          ]
        },
        "status": "completed",
        "code": {
          "coding": [
            {
              "system": "http://snomed.info/sct",
              "code": "713127001",
              "display": "Assessment of alcohol use"
            }
          ]
        },
        "subject": {
          "reference": "Patient/Patient-6543",
          "display": "Dora Marian Neal"
        },
        "context": {
          "reference": "Encounter/Encounter-3641",
          "display": "Wellness Visit"
        },
        "performedPeriod": {
          "start": "2013-10-18T00:00:00-04:00",
          "end": "2013-10-18T00:00:00-04:00"
        },
        "performer": [
          {
            "actor": {
              "reference": "Practitioner/Practitioner-2520",
              "display": "Kimberly Christy Ashley MD"
            }
          }
        ],
        "location": {
          "reference": "Location/Location-1105",
          "display": "Bayside Medical Group"
        }
      },
      "request": {
        "method": "PUT",
        "url": "http://localhost:8080/cqf-ruler/baseDstu3/Procedure/Procedure-586554"
      }
    },
    {
      "fullUrl": "http://localhost:8080/cqf-ruler/baseDstu3/Observation/Observation-586555",
      "resource": {
        "resourceType": "Observation",
        "id": "Observation-586555",
        "meta": {
          "profile": [
            "http://hl7.org/fhir/us/hedis/StructureDefinition/hedis-observation"
          ]
        },
        "status": "final",
        "code": {
          "coding": [
            {
              "system": "TEST",
              "code": "2.16.840.1.113883.3.464.1003.106.11.1035",
              "display": "Five or more drinks per day"
            }
          ]
        },
        "subject": {
          "reference": "Patient/Patient-6543",
          "display": "Dora Marian Neal"
        },
        "context": {
          "reference": "Encounter/Encounter-3641",
          "display": "Wellness Visit"
        },
        "effectiveDateTime": "2013-10-18T00:00:00-04:00",
        "performer": [
          {
            "reference": "Practitioner/Practitioner-2520",
            "display": "Kimberly Christy Ashley MD"
          }
        ],
        "valueQuantity": {
          "value": 6.0,
          "unit": "score"
        }
      },
      "request": {
        "method": "PUT",
        "url": "http://localhost:8080/cqf-ruler/baseDstu3/Observation/Observation-586555"
      }
    },
    {
      "fullUrl": "http://localhost:8080/cqf-ruler/baseDstu3/Observation/Observation-586556",
      "resource": {
        "resourceType": "Observation",
        "id": "Observation-586556",
        "meta": {
          "profile": [
            "http://hl7.org/fhir/us/hedis/StructureDefinition/hedis-observation"
          ]
        },
        "status": "final",
        "code": {
          "coding": [
            {
              "system": "TEST",
              "code": "2.16.840.1.113883.3.464.1003.107.12.1022",
              "display": "AUDIT-C Total Score (in points)"
            }
          ]
        },
        "subject": {
          "reference": "Patient/Patient-6543",
          "display": "Dora Marian Neal"
        },
        "context": {
          "reference": "Encounter/Encounter-3641",
          "display": "Wellness Visit"
        },
        "effectiveDateTime": "2013-10-18T00:00:00-04:00",
        "performer": [
          {
            "reference": "Practitioner/Practitioner-2520",
            "display": "Kimberly Christy Ashley MD"
          }
        ],
        "valueQuantity": {
          "value": 8.0,
          "unit": "score"
        }
      },
      "request": {
        "method": "PUT",
        "url": "http://localhost:8080/cqf-ruler/baseDstu3/Observation/Observation-586556"
      }
    },
    {
      "fullUrl": "http://localhost:8080/cqf-ruler/baseDstu3/Condition/Condition-586557",
      "resource": {
        "resourceType": "Condition",
        "id": "Condition-586557",
        "meta": {
          "profile": [
            "http://hl7.org/fhir/us/hedis/StructureDefinition/hedis-condition"
          ]
        },
        "clinicalStatus": "active",
        "verificationStatus": "confirmed",
        "code": {
          "coding": [
            {
              "system": "TEST",
              "code": "2.16.840.1.113883.3.464.1003.106.12.1010",
              "display": "Alcohol abuse or dependenc"
            }
          ]
        },
        "subject": {
          "reference": "Patient/Patient-6543",
          "display": "Dora Marian Neal"
        },
        "context": {
          "reference": "Encounter/Encounter-3641",
          "display": "Wellness Visit"
        },
        "onsetDateTime": "2013-10-18T00:00:00-04:00",
        "assertedDate": "2013-10-18T00:00:00-04:00",
        "asserter": {
          "reference": "Practitioner/Practitioner-2520",
          "display": "Kimberly Christy Ashley MD"
        }
      },
      "request": {
        "method": "PUT",
        "url": "http://localhost:8080/cqf-ruler/baseDstu3/Condition/Condition-586557"
      }
    },
    {
      "fullUrl": "http://localhost:8080/cqf-ruler/baseDstu3/Observation/Observation-586558",
      "resource": {
        "resourceType": "Observation",
        "id": "Observation-586558",
        "meta": {
          "profile": [
            "http://hl7.org/fhir/us/hedis/StructureDefinition/hedis-observation"
          ]
        },
        "status": "final",
        "code": {
          "coding": [
            {
              "system": "http://loinc.org",
              "code": "8480-6",
              "display": "Systolic blood pressure"
            }
          ]
        },
        "subject": {
          "reference": "Patient/Patient-6543",
          "display": "Dora Marian Neal"
        },
        "context": {
          "reference": "Encounter/Encounter-3641",
          "display": "Wellness Visit"
        },
        "effectiveDateTime": "2013-10-18T00:00:00-04:00",
        "performer": [
          {
            "reference": "Practitioner/Practitioner-2520",
            "display": "Kimberly Christy Ashley MD"
          }
        ],
        "valueQuantity": {
          "value": 141.01467792144206,
          "unit": "mmHg"
        }
      },
      "request": {
        "method": "PUT",
        "url": "http://localhost:8080/cqf-ruler/baseDstu3/Observation/Observation-586558"
      }
    },
    {
      "fullUrl": "http://localhost:8080/cqf-ruler/baseDstu3/Observation/Observation-586559",
      "resource": {
        "resourceType": "Observation",
        "id": "Observation-586559",
        "meta": {
          "profile": [
            "http://hl7.org/fhir/us/hedis/StructureDefinition/hedis-observation"
          ]
        },
        "status": "final",
        "code": {
          "coding": [
            {
              "system": "http://loinc.org",
              "code": "8462-4",
              "display": "Diastolic blood pressure"
            }
          ]
        },
        "subject": {
          "reference": "Patient/Patient-6543",
          "display": "Dora Marian Neal"
        },
        "context": {
          "reference": "Encounter/Encounter-3641",
          "display": "Wellness Visit"
        },
        "effectiveDateTime": "2013-10-18T00:00:00-04:00",
        "performer": [
          {
            "reference": "Practitioner/Practitioner-2520",
            "display": "Kimberly Christy Ashley MD"
          }
        ],
        "valueQuantity": {
          "value": 87.01336213445032,
          "unit": "mmHg"
        }
      },
      "request": {
        "method": "PUT",
        "url": "http://localhost:8080/cqf-ruler/baseDstu3/Observation/Observation-586559"
      }
    },
    {
      "fullUrl": "http://localhost:8080/cqf-ruler/baseDstu3/Condition/Condition-586560",
      "resource": {
        "resourceType": "Condition",
        "id": "Condition-586560",
        "meta": {
          "profile": [
            "http://hl7.org/fhir/us/hedis/StructureDefinition/hedis-condition"
          ]
        },
        "clinicalStatus": "active",
        "verificationStatus": "confirmed",
        "code": {
          "coding": [
            {
              "system": "http://snomed.info/sct",
              "code": "78975002",
              "display": "Malignant essential hypertension"
            }
          ]
        },
        "subject": {
          "reference": "Patient/Patient-6543",
          "display": "Dora Marian Neal"
        },
        "context": {
          "reference": "Encounter/Encounter-3641",
          "display": "Wellness Visit"
        },
        "onsetDateTime": "2013-10-18T00:00:00-04:00",
        "assertedDate": "2013-10-18T00:00:00-04:00",
        "asserter": {
          "reference": "Practitioner/Practitioner-2520",
          "display": "Kimberly Christy Ashley MD"
        }
      },
      "request": {
        "method": "PUT",
        "url": "http://localhost:8080/cqf-ruler/baseDstu3/Condition/Condition-586560"
      }
    },
    {
      "fullUrl": "http://localhost:8080/cqf-ruler/baseDstu3/Procedure/Procedure-586561",
      "resource": {
        "resourceType": "Procedure",
        "id": "Procedure-586561",
        "meta": {
          "profile": [
            "http://hl7.org/fhir/us/hedis/StructureDefinition/hedis-procedure"
          ]
        },
        "status": "completed",
        "code": {
          "coding": [
            {
              "system": "http://loinc.org",
              "code": "71965-8",
              "display": "PROMIS-29 Depression score T-score"
            }
          ]
        },
        "subject": {
          "reference": "Patient/Patient-6543",
          "display": "Dora Marian Neal"
        },
        "context": {
          "reference": "Encounter/Encounter-3641",
          "display": "Wellness Visit"
        },
        "performedPeriod": {
          "start": "2013-10-18T00:00:00-04:00",
          "end": "2013-10-18T00:00:00-04:00"
        },
        "performer": [
          {
            "actor": {
              "reference": "Practitioner/Practitioner-2520",
              "display": "Kimberly Christy Ashley MD"
            }
          }
        ],
        "location": {
          "reference": "Location/Location-1105",
          "display": "Bayside Medical Group"
        }
      },
      "request": {
        "method": "PUT",
        "url": "http://localhost:8080/cqf-ruler/baseDstu3/Procedure/Procedure-586561"
      }
    },
    {
      "fullUrl": "http://localhost:8080/cqf-ruler/baseDstu3/Observation/Observation-586562",
      "resource": {
        "resourceType": "Observation",
        "id": "Observation-586562",
        "meta": {
          "profile": [
            "http://hl7.org/fhir/us/hedis/StructureDefinition/hedis-observation"
          ]
        },
        "status": "final",
        "code": {
          "coding": [
            {
              "system": "http://snomed.info/sct",
              "code": "428171000124102",
              "display": "Depression screening negative (finding)"
            }
          ]
        },
        "subject": {
          "reference": "Patient/Patient-6543",
          "display": "Dora Marian Neal"
        },
        "context": {
          "reference": "Encounter/Encounter-3641",
          "display": "Wellness Visit"
        },
        "effectiveDateTime": "2013-10-18T00:00:00-04:00",
        "performer": [
          {
            "reference": "Practitioner/Practitioner-2520",
            "display": "Kimberly Christy Ashley MD"
          }
        ],
        "valueString": "NEGATIVE"
      },
      "request": {
        "method": "PUT",
        "url": "http://localhost:8080/cqf-ruler/baseDstu3/Observation/Observation-586562"
      }
    },
    {
      "fullUrl": "http://localhost:8080/cqf-ruler/baseDstu3/Observation/Observation-586563",
      "resource": {
        "resourceType": "Observation",
        "id": "Observation-586563",
        "meta": {
          "profile": [
            "http://hl7.org/fhir/us/hedis/StructureDefinition/hedis-observation"
          ]
        },
        "status": "final",
        "code": {
          "coding": [
            {
              "system": "http://loinc.org",
              "code": "8302-2",
              "display": "Body Height"
            }
          ]
        },
        "subject": {
          "reference": "Patient/Patient-6543",
          "display": "Dora Marian Neal"
        },
        "context": {
          "reference": "Encounter/Encounter-3641",
          "display": "Wellness Visit"
        },
        "effectiveDateTime": "2013-10-18T00:00:00-04:00",
        "performer": [
          {
            "reference": "Practitioner/Practitioner-2520",
            "display": "Kimberly Christy Ashley MD"
          }
        ],
        "valueQuantity": {
          "value": 163.3,
          "unit": "cm"
        }
      },
      "request": {
        "method": "PUT",
        "url": "http://localhost:8080/cqf-ruler/baseDstu3/Observation/Observation-586563"
      }
    },
    {
      "fullUrl": "http://localhost:8080/cqf-ruler/baseDstu3/Observation/Observation-586564",
      "resource": {
        "resourceType": "Observation",
        "id": "Observation-586564",
        "meta": {
          "profile": [
            "http://hl7.org/fhir/us/hedis/StructureDefinition/hedis-observation"
          ]
        },
        "status": "final",
        "code": {
          "coding": [
            {
              "system": "http://loinc.org",
              "code": "29463-7",
              "display": "Body Weight"
            }
          ]
        },
        "subject": {
          "reference": "Patient/Patient-6543",
          "display": "Dora Marian Neal"
        },
        "context": {
          "reference": "Encounter/Encounter-3641",
          "display": "Wellness Visit"
        },
        "effectiveDateTime": "2013-10-18T00:00:00-04:00",
        "performer": [
          {
            "reference": "Practitioner/Practitioner-2520",
            "display": "Kimberly Christy Ashley MD"
          }
        ],
        "valueQuantity": {
          "value": 58.2,
          "unit": "kg"
        }
      },
      "request": {
        "method": "PUT",
        "url": "http://localhost:8080/cqf-ruler/baseDstu3/Observation/Observation-586564"
      }
    },
    {
      "fullUrl": "http://localhost:8080/cqf-ruler/baseDstu3/Observation/Observation-586565",
      "resource": {
        "resourceType": "Observation",
        "id": "Observation-586565",
        "meta": {
          "profile": [
            "http://hl7.org/fhir/us/hedis/StructureDefinition/hedis-observation"
          ]
        },
        "status": "final",
        "code": {
          "coding": [
            {
              "system": "http://loinc.org",
              "code": "39156-5",
              "display": "Body Mass Index"
            }
          ]
        },
        "subject": {
          "reference": "Patient/Patient-6543",
          "display": "Dora Marian Neal"
        },
        "context": {
          "reference": "Encounter/Encounter-3641",
          "display": "Wellness Visit"
        },
        "effectiveDateTime": "2013-10-18T00:00:00-04:00",
        "performer": [
          {
            "reference": "Practitioner/Practitioner-2520",
            "display": "Kimberly Christy Ashley MD"
          }
        ],
        "valueQuantity": {
          "value": 21.824817217155807,
          "unit": "kg/m2"
        }
      },
      "request": {
        "method": "PUT",
        "url": "http://localhost:8080/cqf-ruler/baseDstu3/Observation/Observation-586565"
      }
    },
    {
      "fullUrl": "http://localhost:8080/cqf-ruler/baseDstu3/Observation/Observation-586568",
      "resource": {
        "resourceType": "Observation",
        "id": "Observation-586568",
        "meta": {
          "profile": [
            "http://hl7.org/fhir/us/hedis/StructureDefinition/hedis-observation"
          ]
        },
        "status": "final",
        "code": {
          "coding": [
            {
              "system": "http://loinc.org",
              "code": "55284-4",
              "display": "Blood Pressure"
            }
          ]
        },
        "subject": {
          "reference": "Patient/Patient-6543",
          "display": "Dora Marian Neal"
        },
        "context": {
          "reference": "Encounter/Encounter-3641",
          "display": "Wellness Visit"
        },
        "effectiveDateTime": "2013-10-18T00:00:00-04:00",
        "valueQuantity": {
          "value": 87.01336213445032,
          "unit": "mmHg"
        },
        "component": [
          {
            "code": {
              "coding": [
                {
                  "system": "http://loinc.org",
                  "code": "8480-6",
                  "display": "Systolic Blood Pressure"
                }
              ]
            }
          },
          {
            "code": {
              "coding": [
                {
                  "system": "http://loinc.org",
                  "code": "8462-4",
                  "display": "Diastolic Blood Pressure"
                }
              ]
            }
          }
        ]
      },
      "request": {
        "method": "PUT",
        "url": "http://localhost:8080/cqf-ruler/baseDstu3/Observation/Observation-586568"
      }
    },
    {
      "fullUrl": "http://localhost:8080/cqf-ruler/baseDstu3/Observation/Observation-586570",
      "resource": {
        "resourceType": "Observation",
        "id": "Observation-586570",
        "status": "final",
        "code": {
          "coding": [
            {
              "system": "http://loinc.org",
              "code": "8302-2",
              "display": "Height"
            }
          ]
        },
        "subject": {
          "reference": "Patient/Patient-6543",
          "display": "Dora Marian Neal"
        },
        "context": {
          "reference": "Encounter/Encounter-3641",
          "display": "Wellness Visit"
        },
        "effectiveDateTime": "2013-10-18T00:00:00-04:00",
        "performer": [
          {
            "reference": "Practitioner/Practitioner-2520",
            "display": "Kimberly Christy Ashley MD"
          }
        ],
        "valueQuantity": {
          "value": 163.3,
          "unit": "cm"
        }
      },
      "request": {
        "method": "PUT",
        "url": "http://localhost:8080/cqf-ruler/baseDstu3/Observation/Observation-586570"
      }
    },
    {
      "fullUrl": "http://localhost:8080/cqf-ruler/baseDstu3/Observation/Observation-586571",
      "resource": {
        "resourceType": "Observation",
        "id": "Observation-586571",
        "status": "final",
        "code": {
          "coding": [
            {
              "system": "http://loinc.org",
              "code": "29463-7",
              "display": "Weight"
            }
          ]
        },
        "subject": {
          "reference": "Patient/Patient-6543",
          "display": "Dora Marian Neal"
        },
        "context": {
          "reference": "Encounter/Encounter-3641",
          "display": "Wellness Visit"
        },
        "effectiveDateTime": "2013-10-18T00:00:00-04:00",
        "performer": [
          {
            "reference": "Practitioner/Practitioner-2520",
            "display": "Kimberly Christy Ashley MD"
          }
        ],
        "valueQuantity": {
          "value": 58.2,
          "unit": "kg"
        }
      },
      "request": {
        "method": "PUT",
        "url": "http://localhost:8080/cqf-ruler/baseDstu3/Observation/Observation-586571"
      }
    },
    {
      "fullUrl": "http://localhost:8080/cqf-ruler/baseDstu3/Observation/Observation-586572",
      "resource": {
        "resourceType": "Observation",
        "id": "Observation-586572",
        "status": "final",
        "code": {
          "coding": [
            {
              "system": "http://loinc.org",
              "code": "39156-5",
              "display": "BMI"
            }
          ]
        },
        "subject": {
          "reference": "Patient/Patient-6543",
          "display": "Dora Marian Neal"
        },
        "context": {
          "reference": "Encounter/Encounter-3641",
          "display": "Wellness Visit"
        },
        "effectiveDateTime": "2013-10-18T00:00:00-04:00",
        "performer": [
          {
            "reference": "Practitioner/Practitioner-2520",
            "display": "Kimberly Christy Ashley MD"
          }
        ],
        "valueQuantity": {
          "value": 21.824817217155807,
          "unit": "kg/m2"
        }
      },
      "request": {
        "method": "PUT",
        "url": "http://localhost:8080/cqf-ruler/baseDstu3/Observation/Observation-586572"
      }
    },
    {
      "fullUrl": "http://localhost:8080/cqf-ruler/baseDstu3/Observation/Observation-586573",
      "resource": {
        "resourceType": "Observation",
        "id": "Observation-586573",
        "status": "final",
        "code": {
          "coding": [
            {
              "system": "http://loinc.org",
              "code": "8310-5",
              "display": "Temperature"
            }
          ]
        },
        "subject": {
          "reference": "Patient/Patient-6543",
          "display": "Dora Marian Neal"
        },
        "context": {
          "reference": "Encounter/Encounter-3641",
          "display": "Wellness Visit"
        },
        "effectiveDateTime": "2013-10-18T00:00:00-04:00",
        "performer": [
          {
            "reference": "Practitioner/Practitioner-2520",
            "display": "Kimberly Christy Ashley MD"
          }
        ],
        "valueQuantity": {
          "value": 37.0,
          "unit": "C"
        }
      },
      "request": {
        "method": "PUT",
        "url": "http://localhost:8080/cqf-ruler/baseDstu3/Observation/Observation-586573"
      }
    },
    {
      "fullUrl": "http://localhost:8080/cqf-ruler/baseDstu3/Observation/Observation-586574",
      "resource": {
        "resourceType": "Observation",
        "id": "Observation-586574",
        "status": "final",
        "code": {
          "coding": [
            {
              "system": "http://loinc.org",
              "code": "8459-0",
              "display": "Systolic Blood Pressure"
            }
          ]
        },
        "subject": {
          "reference": "Patient/Patient-6543",
          "display": "Dora Marian Neal"
        },
        "context": {
          "reference": "Encounter/Encounter-3641",
          "display": "Wellness Visit"
        },
        "effectiveDateTime": "2013-10-18T00:00:00-04:00",
        "performer": [
          {
            "reference": "Practitioner/Practitioner-2520",
            "display": "Kimberly Christy Ashley MD"
          }
        ],
        "valueQuantity": {
          "value": 141.01467792144206,
          "unit": "mmHg"
        }
      },
      "request": {
        "method": "PUT",
        "url": "http://localhost:8080/cqf-ruler/baseDstu3/Observation/Observation-586574"
      }
    },
    {
      "fullUrl": "http://localhost:8080/cqf-ruler/baseDstu3/Observation/Observation-586575",
      "resource": {
        "resourceType": "Observation",
        "id": "Observation-586575",
        "status": "final",
        "code": {
          "coding": [
            {
              "system": "http://loinc.org",
              "code": "8453-3",
              "display": "Diastolic Blood Pressure"
            }
          ]
        },
        "subject": {
          "reference": "Patient/Patient-6543",
          "display": "Dora Marian Neal"
        },
        "context": {
          "reference": "Encounter/Encounter-3641",
          "display": "Wellness Visit"
        },
        "effectiveDateTime": "2013-10-18T00:00:00-04:00",
        "performer": [
          {
            "reference": "Practitioner/Practitioner-2520",
            "display": "Kimberly Christy Ashley MD"
          }
        ],
        "valueQuantity": {
          "value": 87.01336213445032,
          "unit": "mmHg"
        }
      },
      "request": {
        "method": "PUT",
        "url": "http://localhost:8080/cqf-ruler/baseDstu3/Observation/Observation-586575"
      }
    },
    {
      "fullUrl": "http://localhost:8080/cqf-ruler/baseDstu3/DiagnosticReport/DiagnosticReport-586569",
      "resource": {
        "resourceType": "DiagnosticReport",
        "id": "DiagnosticReport-586569",
        "meta": {
          "profile": [
            "http://hl7.org/fhir/us/hedis/StructureDefinition/hedis-diagnosticreport"
          ]
        },
        "status": "final",
        "category": {
          "coding": [
            {
              "system": "http://hl7.org/fhir/ValueSet/diagnostic-service-sections",
              "code": "LAB",
              "display": "Laboratory"
            }
          ]
        },
        "code": {
          "coding": [
            {
              "system": "http://loinc.org",
              "code": "8716-3",
              "display": "Vital Signs Panel"
            }
          ]
        },
        "subject": {
          "reference": "Patient/Patient-6543",
          "display": "Dora Marian Neal"
        },
        "context": {
          "reference": "Encounter/Encounter-3641",
          "display": "Wellness Visit"
        },
        "effectivePeriod": {
          "start": "2013-10-18T00:00:00-04:00",
          "end": "2013-10-18T00:00:00-04:00"
        },
        "issued": "2013-10-18T00:00:00.000-04:00",
        "result": [
          {
            "reference": "Observation/Observation-586570",
            "display": "Height"
          },
          {
            "reference": "Observation/Observation-586571",
            "display": "Weight"
          },
          {
            "reference": "Observation/Observation-586572",
            "display": "BMI"
          },
          {
            "reference": "Observation/Observation-586573",
            "display": "Temperature"
          },
          {
            "reference": "Observation/Observation-586574",
            "display": "Systolic Blood Pressure"
          },
          {
            "reference": "Observation/Observation-586575",
            "display": "Diastolic Blood Pressure"
          }
        ]
      },
      "request": {
        "method": "PUT",
        "url": "http://localhost:8080/cqf-ruler/baseDstu3/DiagnosticReport/DiagnosticReport-586569"
      }
    }
  ]
}