{
  "resourceType": "Bundle",
  "id": "Dora Marian Neal-6543-Encounter-2865",
  "type": "transaction",
  "entry": [
    {
      "fullUrl": "http://localhost:8080/cqf-ruler/baseDstu3/Encounter/Encounter-2865",
      "resource": {
        "resourceType": "Encounter",
        "id": "Encounter-2865",
        "status": "finished",
        "class": {
          "system": "http://hl7.org/fhir/encounter-class",
          "code": "emergency",
          "display": "Emergency"
        },
        "subject": {
          "reference": "Patient/Patient-6543",
          "display": "Dora Marian Neal"
        },
        "participant": [
          {
            "period": {
              "start": "2016-05-27T00:00:00-04:00",
              "end": "2016-05-27T07:49:00-04:00"
            },
            "individual": {
              "reference": "Practitioner/Practitioner-2518",
              "display": "Jane Rosemary Saunders MD"
            }
          }
        ],
        "period": {
          "start": "2016-05-27T00:00:00-04:00",
          "end": "2016-05-27T07:49:00-04:00"
        },
        "location": [
          {
            "location": {
              "reference": "Location/Location-1001",
              "display": "Windward General Hospital"
            }
          }
        ],
        "serviceProvider": {
          "reference": "Organization/Organization-1001",
          "display": "Windward General Hospital"
        }
      },
      "request": {
        "method": "PUT",
        "url": "http://localhost:8080/cqf-ruler/baseDstu3/Encounter/Encounter-2865"
      }
    },
    {
      "fullUrl": "http://localhost:8080/cqf-ruler/baseDstu3/Procedure/Procedure-611587",
      "resource": {
        "resourceType": "Procedure",
        "id": "Procedure-611587",
        "status": "completed",
        "code": {
          "coding": [
            {
              "system": "http://www.ama-assn.org/go/cpt",
              "code": "58291",
              "display": "Vaginal hysterectomy, for uterus greater than 250 g; with removal of tube(s) and/or ovary(s)"
            }
          ]
        },
        "subject": {
          "reference": "Patient/Patient-6543",
          "display": "Dora Marian Neal"
        },
        "context": {
          "reference": "Encounter/Encounter-2865",
          "display": "Windward General Hospital"
        },
        "performedPeriod": {
          "start": "2016-05-27T07:49:00-04:00",
          "end": "2016-05-27T07:49:00-04:00"
        },
        "performer": [
          {
            "actor": {
              "reference": "Practitioner/Practitioner-2518",
              "display": "Jane Rosemary Saunders MD"
            }
          }
        ],
        "location": {
          "reference": "Location/Location-1001",
          "display": "Windward General Hospital"
        }
      },
      "request": {
        "method": "PUT",
        "url": "http://localhost:8080/cqf-ruler/baseDstu3/Procedure/Procedure-611587"
      }
    },
    {
      "fullUrl": "http://localhost:8080/cqf-ruler/baseDstu3/Observation/Observation-611590",
      "resource": {
        "resourceType": "Observation",
        "id": "Observation-611590",
        "status": "final",
        "code": {
          "coding": [
            {
              "system": "http://loinc.org",
              "code": "8302-2",
              "display": "Height"
            }
          ]
        },
        "subject": {
          "reference": "Patient/Patient-6543",
          "display": "Dora Marian Neal"
        },
        "context": {
          "reference": "Encounter/Encounter-2865",
          "display": "Windward General Hospital"
        },
        "effectiveDateTime": "2016-05-27T00:00:00-04:00",
        "performer": [
          {
            "reference": "Practitioner/Practitioner-2518",
            "display": "Jane Rosemary Saunders MD"
          }
        ],
        "valueQuantity": {
          "value": 155.0,
          "unit": "cm"
        }
      },
      "request": {
        "method": "PUT",
        "url": "http://localhost:8080/cqf-ruler/baseDstu3/Observation/Observation-611590"
      }
    },
    {
      "fullUrl": "http://localhost:8080/cqf-ruler/baseDstu3/Observation/Observation-611591",
      "resource": {
        "resourceType": "Observation",
        "id": "Observation-611591",
        "status": "final",
        "code": {
          "coding": [
            {
              "system": "http://loinc.org",
              "code": "29463-7",
              "display": "Weight"
            }
          ]
        },
        "subject": {
          "reference": "Patient/Patient-6543",
          "display": "Dora Marian Neal"
        },
        "context": {
          "reference": "Encounter/Encounter-2865",
          "display": "Windward General Hospital"
        },
        "effectiveDateTime": "2016-05-27T00:00:00-04:00",
        "performer": [
          {
            "reference": "Practitioner/Practitioner-2518",
            "display": "Jane Rosemary Saunders MD"
          }
        ],
        "valueQuantity": {
          "value": 0.0,
          "unit": "kg"
        }
      },
      "request": {
        "method": "PUT",
        "url": "http://localhost:8080/cqf-ruler/baseDstu3/Observation/Observation-611591"
      }
    },
    {
      "fullUrl": "http://localhost:8080/cqf-ruler/baseDstu3/Observation/Observation-611592",
      "resource": {
        "resourceType": "Observation",
        "id": "Observation-611592",
        "status": "final",
        "code": {
          "coding": [
            {
              "system": "http://loinc.org",
              "code": "39156-5",
              "display": "BMI"
            }
          ]
        },
        "subject": {
          "reference": "Patient/Patient-6543",
          "display": "Dora Marian Neal"
        },
        "context": {
          "reference": "Encounter/Encounter-2865",
          "display": "Windward General Hospital"
        },
        "effectiveDateTime": "2016-05-27T00:00:00-04:00",
        "performer": [
          {
            "reference": "Practitioner/Practitioner-2518",
            "display": "Jane Rosemary Saunders MD"
          }
        ],
        "valueQuantity": {
          "value": 0.0,
          "unit": "kg/m2"
        }
      },
      "request": {
        "method": "PUT",
        "url": "http://localhost:8080/cqf-ruler/baseDstu3/Observation/Observation-611592"
      }
    },
    {
      "fullUrl": "http://localhost:8080/cqf-ruler/baseDstu3/Observation/Observation-611593",
      "resource": {
        "resourceType": "Observation",
        "id": "Observation-611593",
        "status": "final",
        "code": {
          "coding": [
            {
              "system": "http://loinc.org",
              "code": "8310-5",
              "display": "Temperature"
            }
          ]
        },
        "subject": {
          "reference": "Patient/Patient-6543",
          "display": "Dora Marian Neal"
        },
        "context": {
          "reference": "Encounter/Encounter-2865",
          "display": "Windward General Hospital"
        },
        "effectiveDateTime": "2016-05-27T00:00:00-04:00",
        "performer": [
          {
            "reference": "Practitioner/Practitioner-2518",
            "display": "Jane Rosemary Saunders MD"
          }
        ],
        "valueQuantity": {
          "value": 37.0,
          "unit": "C"
        }
      },
      "request": {
        "method": "PUT",
        "url": "http://localhost:8080/cqf-ruler/baseDstu3/Observation/Observation-611593"
      }
    },
    {
      "fullUrl": "http://localhost:8080/cqf-ruler/baseDstu3/Observation/Observation-611594",
      "resource": {
        "resourceType": "Observation",
        "id": "Observation-611594",
        "status": "final",
        "code": {
          "coding": [
            {
              "system": "http://loinc.org",
              "code": "8459-0",
              "display": "Systolic Blood Pressure"
            }
          ]
        },
        "subject": {
          "reference": "Patient/Patient-6543",
          "display": "Dora Marian Neal"
        },
        "context": {
          "reference": "Encounter/Encounter-2865",
          "display": "Windward General Hospital"
        },
        "effectiveDateTime": "2016-05-27T00:00:00-04:00",
        "performer": [
          {
            "reference": "Practitioner/Practitioner-2518",
            "display": "Jane Rosemary Saunders MD"
          }
        ],
        "valueQuantity": {
          "value": 126.92779785602008,
          "unit": "mmHg"
        }
      },
      "request": {
        "method": "PUT",
        "url": "http://localhost:8080/cqf-ruler/baseDstu3/Observation/Observation-611594"
      }
    },
    {
      "fullUrl": "http://localhost:8080/cqf-ruler/baseDstu3/Observation/Observation-611595",
      "resource": {
        "resourceType": "Observation",
        "id": "Observation-611595",
        "status": "final",
        "code": {
          "coding": [
            {
              "system": "http://loinc.org",
              "code": "8453-3",
              "display": "Diastolic Blood Pressure"
            }
          ]
        },
        "subject": {
          "reference": "Patient/Patient-6543",
          "display": "Dora Marian Neal"
        },
        "context": {
          "reference": "Encounter/Encounter-2865",
          "display": "Windward General Hospital"
        },
        "effectiveDateTime": "2016-05-27T00:00:00-04:00",
        "performer": [
          {
            "reference": "Practitioner/Practitioner-2518",
            "display": "Jane Rosemary Saunders MD"
          }
        ],
        "valueQuantity": {
          "value": 73.69494085636704,
          "unit": "mmHg"
        }
      },
      "request": {
        "method": "PUT",
        "url": "http://localhost:8080/cqf-ruler/baseDstu3/Observation/Observation-611595"
      }
    },
    {
      "fullUrl": "http://localhost:8080/cqf-ruler/baseDstu3/DiagnosticReport/DiagnosticReport-611589",
      "resource": {
        "resourceType": "DiagnosticReport",
        "id": "DiagnosticReport-611589",
        "status": "final",
        "code": {
          "coding": [
            {
              "system": "http://loinc.org",
              "code": "8716-3",
              "display": "Vital Signs Panel"
            }
          ]
        },
        "subject": {
          "reference": "Patient/Patient-6543",
          "display": "Dora Marian Neal"
        },
        "context": {
          "reference": "Encounter/Encounter-2865",
          "display": "Windward General Hospital"
        },
        "effectivePeriod": {
          "start": "2016-05-27T00:00:00-04:00",
          "end": "2016-05-27T00:00:00-04:00"
        },
        "issued": "2016-05-27T00:00:00.000-04:00",
        "result": [
          {
            "reference": "Observation/Observation-611590",
            "display": "Height"
          },
          {
            "reference": "Observation/Observation-611591",
            "display": "Weight"
          },
          {
            "reference": "Observation/Observation-611592",
            "display": "BMI"
          },
          {
            "reference": "Observation/Observation-611593",
            "display": "Temperature"
          },
          {
            "reference": "Observation/Observation-611594",
            "display": "Systolic Blood Pressure"
          },
          {
            "reference": "Observation/Observation-611595",
            "display": "Diastolic Blood Pressure"
          }
        ]
      },
      "request": {
        "method": "PUT",
        "url": "http://localhost:8080/cqf-ruler/baseDstu3/DiagnosticReport/DiagnosticReport-611589"
      }
    }
  ]
}