{
  "resourceType": "Bundle",
  "id": "Ted Griffith Briggs-6544-Encounter-2040",
  "type": "transaction",
  "entry": [
    {
      "fullUrl": "http://localhost:8080/cqf-ruler/baseDstu3/Encounter/Encounter-2040",
      "resource": {
        "resourceType": "Encounter",
        "id": "Encounter-2040",
        "status": "finished",
        "class": {
          "system": "http://hl7.org/fhir/encounter-class",
          "code": "outpatient",
          "display": "Inpatient"
        },
        "subject": {
          "reference": "Patient/Patient-6544",
          "display": "Ted Griffith Briggs"
        },
        "participant": [
          {
            "period": {
              "start": "2010-01-10T22:00:00-05:00",
              "end": "2010-01-10T22:00:00-05:00"
            },
            "individual": {
              "reference": "Practitioner/Practitioner-2521",
              "display": "Heather Fuentes Guerra MD"
            }
          }
        ],
        "period": {
          "start": "2010-01-10T22:00:00-05:00",
          "end": "2010-01-10T22:00:00-05:00"
        },
        "location": [
          {
            "location": {
              "reference": "Location/Location-1106",
              "display": "Cranston Family Medical"
            }
          }
        ],
        "serviceProvider": {
          "reference": "Organization/Organization-1106",
          "display": "Cranston Family Medical"
        }
      },
      "request": {
        "method": "PUT",
        "url": "http://localhost:8080/cqf-ruler/baseDstu3/Encounter/Encounter-2040"
      }
    },
    {
      "fullUrl": "http://localhost:8080/cqf-ruler/baseDstu3/Observation/Observation-449257",
      "resource": {
        "resourceType": "Observation",
        "id": "Observation-449257",
        "status": "final",
        "code": {
          "coding": [
            {
              "system": "http://loinc.org",
              "code": "8302-2",
              "display": "Height"
            }
          ]
        },
        "subject": {
          "reference": "Patient/Patient-6544",
          "display": "Ted Griffith Briggs"
        },
        "context": {
          "reference": "Encounter/Encounter-2040",
          "display": "Cranston Family Medical"
        },
        "effectiveDateTime": "2010-01-10T22:00:00-05:00",
        "performer": [
          {
            "reference": "Practitioner/Practitioner-2521",
            "display": "Heather Fuentes Guerra MD"
          }
        ],
        "valueQuantity": {
          "value": 0.0,
          "unit": "cm"
        }
      },
      "request": {
        "method": "PUT",
        "url": "http://localhost:8080/cqf-ruler/baseDstu3/Observation/Observation-449257"
      }
    },
    {
      "fullUrl": "http://localhost:8080/cqf-ruler/baseDstu3/Observation/Observation-449258",
      "resource": {
        "resourceType": "Observation",
        "id": "Observation-449258",
        "status": "final",
        "code": {
          "coding": [
            {
              "system": "http://loinc.org",
              "code": "29463-7",
              "display": "Weight"
            }
          ]
        },
        "subject": {
          "reference": "Patient/Patient-6544",
          "display": "Ted Griffith Briggs"
        },
        "context": {
          "reference": "Encounter/Encounter-2040",
          "display": "Cranston Family Medical"
        },
        "effectiveDateTime": "2010-01-10T22:00:00-05:00",
        "performer": [
          {
            "reference": "Practitioner/Practitioner-2521",
            "display": "Heather Fuentes Guerra MD"
          }
        ],
        "valueQuantity": {
          "value": 0.0,
          "unit": "kg"
        }
      },
      "request": {
        "method": "PUT",
        "url": "http://localhost:8080/cqf-ruler/baseDstu3/Observation/Observation-449258"
      }
    },
    {
      "fullUrl": "http://localhost:8080/cqf-ruler/baseDstu3/Observation/Observation-449259",
      "resource": {
        "resourceType": "Observation",
        "id": "Observation-449259",
        "status": "final",
        "code": {
          "coding": [
            {
              "system": "http://loinc.org",
              "code": "39156-5",
              "display": "BMI"
            }
          ]
        },
        "subject": {
          "reference": "Patient/Patient-6544",
          "display": "Ted Griffith Briggs"
        },
        "context": {
          "reference": "Encounter/Encounter-2040",
          "display": "Cranston Family Medical"
        },
        "effectiveDateTime": "2010-01-10T22:00:00-05:00",
        "performer": [
          {
            "reference": "Practitioner/Practitioner-2521",
            "display": "Heather Fuentes Guerra MD"
          }
        ],
        "valueQuantity": {
          "value": 0.0,
          "unit": "kg/m2"
        }
      },
      "request": {
        "method": "PUT",
        "url": "http://localhost:8080/cqf-ruler/baseDstu3/Observation/Observation-449259"
      }
    },
    {
      "fullUrl": "http://localhost:8080/cqf-ruler/baseDstu3/Observation/Observation-449260",
      "resource": {
        "resourceType": "Observation",
        "id": "Observation-449260",
        "status": "final",
        "code": {
          "coding": [
            {
              "system": "http://loinc.org",
              "code": "8310-5",
              "display": "Temperature"
            }
          ]
        },
        "subject": {
          "reference": "Patient/Patient-6544",
          "display": "Ted Griffith Briggs"
        },
        "context": {
          "reference": "Encounter/Encounter-2040",
          "display": "Cranston Family Medical"
        },
        "effectiveDateTime": "2010-01-10T22:00:00-05:00",
        "performer": [
          {
            "reference": "Practitioner/Practitioner-2521",
            "display": "Heather Fuentes Guerra MD"
          }
        ],
        "valueQuantity": {
          "value": 37.0,
          "unit": "C"
        }
      },
      "request": {
        "method": "PUT",
        "url": "http://localhost:8080/cqf-ruler/baseDstu3/Observation/Observation-449260"
      }
    },
    {
      "fullUrl": "http://localhost:8080/cqf-ruler/baseDstu3/Observation/Observation-449261",
      "resource": {
        "resourceType": "Observation",
        "id": "Observation-449261",
        "status": "final",
        "code": {
          "coding": [
            {
              "system": "http://loinc.org",
              "code": "8459-0",
              "display": "Systolic Blood Pressure"
            }
          ]
        },
        "subject": {
          "reference": "Patient/Patient-6544",
          "display": "Ted Griffith Briggs"
        },
        "context": {
          "reference": "Encounter/Encounter-2040",
          "display": "Cranston Family Medical"
        },
        "effectiveDateTime": "2010-01-10T22:00:00-05:00",
        "performer": [
          {
            "reference": "Practitioner/Practitioner-2521",
            "display": "Heather Fuentes Guerra MD"
          }
        ],
        "valueQuantity": {
          "value": 138.37748345034873,
          "unit": "mmHg"
        }
      },
      "request": {
        "method": "PUT",
        "url": "http://localhost:8080/cqf-ruler/baseDstu3/Observation/Observation-449261"
      }
    },
    {
      "fullUrl": "http://localhost:8080/cqf-ruler/baseDstu3/Observation/Observation-449262",
      "resource": {
        "resourceType": "Observation",
        "id": "Observation-449262",
        "status": "final",
        "code": {
          "coding": [
            {
              "system": "http://loinc.org",
              "code": "8453-3",
              "display": "Diastolic Blood Pressure"
            }
          ]
        },
        "subject": {
          "reference": "Patient/Patient-6544",
          "display": "Ted Griffith Briggs"
        },
        "context": {
          "reference": "Encounter/Encounter-2040",
          "display": "Cranston Family Medical"
        },
        "effectiveDateTime": "2010-01-10T22:00:00-05:00",
        "performer": [
          {
            "reference": "Practitioner/Practitioner-2521",
            "display": "Heather Fuentes Guerra MD"
          }
        ],
        "valueQuantity": {
          "value": 72.92825872876195,
          "unit": "mmHg"
        }
      },
      "request": {
        "method": "PUT",
        "url": "http://localhost:8080/cqf-ruler/baseDstu3/Observation/Observation-449262"
      }
    },
    {
      "fullUrl": "http://localhost:8080/cqf-ruler/baseDstu3/DiagnosticReport/DiagnosticReport-449256",
      "resource": {
        "resourceType": "DiagnosticReport",
        "id": "DiagnosticReport-449256",
        "status": "final",
        "code": {
          "coding": [
            {
              "system": "http://loinc.org",
              "code": "8716-3",
              "display": "Vital Signs Panel"
            }
          ]
        },
        "subject": {
          "reference": "Patient/Patient-6544",
          "display": "Ted Griffith Briggs"
        },
        "context": {
          "reference": "Encounter/Encounter-2040",
          "display": "Cranston Family Medical"
        },
        "effectivePeriod": {
          "start": "2010-01-10T22:00:00-05:00",
          "end": "2010-01-10T22:00:00-05:00"
        },
        "issued": "2010-01-10T22:00:00.000-05:00",
        "result": [
          {
            "reference": "Observation/Observation-449257",
            "display": "Height"
          },
          {
            "reference": "Observation/Observation-449258",
            "display": "Weight"
          },
          {
            "reference": "Observation/Observation-449259",
            "display": "BMI"
          },
          {
            "reference": "Observation/Observation-449260",
            "display": "Temperature"
          },
          {
            "reference": "Observation/Observation-449261",
            "display": "Systolic Blood Pressure"
          },
          {
            "reference": "Observation/Observation-449262",
            "display": "Diastolic Blood Pressure"
          }
        ]
      },
      "request": {
        "method": "PUT",
        "url": "http://localhost:8080/cqf-ruler/baseDstu3/DiagnosticReport/DiagnosticReport-449256"
      }
    }
  ]
}