{
  "resourceType": "Bundle",
  "id": "Ted-Griffith-Briggs-6544-Encounter-2153",
  "type": "transaction",
  "entry": [
    {
      "fullUrl": "http://localhost:8080/cqf-ruler/baseDstu3Encounter/Encounter-2153",
      "resource": {
        "resourceType": "Encounter",
        "id": "Encounter-2153",
        "status": "finished",
        "class": {
          "system": "http://hl7.org/fhir/encounter-class",
          "code": "outpatient",
          "display": "Inpatient"
        },
        "subject": {
          "reference": "Patient/Patient-6544",
          "display": "Ted Griffith Briggs"
        },
        "participant": [
          {
            "period": {
              "start": "2010-11-08T16:00:00-05:00",
              "end": "2010-11-08T16:00:00-05:00"
            },
            "individual": {
              "reference": "Practitioner/Practitioner-2521",
              "display": "Heather Fuentes Guerra MD"
            }
          }
        ],
        "period": {
          "start": "2010-11-08T16:00:00-05:00",
          "end": "2010-11-08T16:00:00-05:00"
        },
        "location": [
          {
            "location": {
              "reference": "Location/Location-1106",
              "display": "Cranston Family Medical"
            }
          }
        ],
        "serviceProvider": {
          "reference": "Organization/Organization-1106",
          "display": "Cranston Family Medical"
        }
      },
      "request": {
        "method": "PUT",
        "url": "http://localhost:8080/cqf-ruler/baseDstu3Encounter/Encounter-2153"
      }
    },
    {
      "fullUrl": "http://localhost:8080/cqf-ruler/baseDstu3Immunization/Immunization-467387",
      "resource": {
        "resourceType": "Immunization",
        "id": "Immunization-467387",
        "status": "completed",
        "notGiven": false,
        "vaccineCode": {
          "coding": [
            {
              "system": "http://hl7.org/fhir/sid/cvx",
              "code": "08",
              "display": "Hep B, adolescent or pediatric"
            }
          ]
        },
        "patient": {
          "reference": "Patient/Patient-6544",
          "display": "Ted Griffith Briggs"
        },
        "date": "2010-11-08T16:00:00-05:00",
        "primarySource": true,
        "location": {
          "reference": "Location/Location-1106",
          "display": "Cranston Family Medical"
        },
        "practitioner": [
          {
            "actor": {
              "reference": "Practitioner/Practitioner-2521",
              "display": "Heather Fuentes Guerra MD"
            }
          }
        ]
      },
      "request": {
        "method": "PUT",
        "url": "http://localhost:8080/cqf-ruler/baseDstu3Immunization/Immunization-467387"
      }
    },
    {
      "fullUrl": "http://localhost:8080/cqf-ruler/baseDstu3Observation/Observation-469382",
      "resource": {
        "resourceType": "Observation",
        "id": "Observation-469382",
        "status": "final",
        "code": {
          "coding": [
            {
              "system": "http://loinc.org",
              "code": "8302-2",
              "display": "Height"
            }
          ]
        },
        "subject": {
          "reference": "Patient/Patient-6544",
          "display": "Ted Griffith Briggs"
        },
        "context": {
          "reference": "Encounter/Encounter-2153",
          "display": "Wellness Visit"
        },
        "effectiveDateTime": "2010-11-08T16:00:00-05:00",
        "performer": [
          {
            "reference": "Practitioner/Practitioner-2521",
            "display": "Heather Fuentes Guerra MD"
          }
        ],
        "valueQuantity": {
          "value": 46.6,
          "unit": "cm"
        }
      },
      "request": {
        "method": "PUT",
        "url": "http://localhost:8080/cqf-ruler/baseDstu3Observation/Observation-469382"
      }
    },
    {
      "fullUrl": "http://localhost:8080/cqf-ruler/baseDstu3Observation/Observation-469383",
      "resource": {
        "resourceType": "Observation",
        "id": "Observation-469383",
        "status": "final",
        "code": {
          "coding": [
            {
              "system": "http://loinc.org",
              "code": "29463-7",
              "display": "Weight"
            }
          ]
        },
        "subject": {
          "reference": "Patient/Patient-6544",
          "display": "Ted Griffith Briggs"
        },
        "context": {
          "reference": "Encounter/Encounter-2153",
          "display": "Wellness Visit"
        },
        "effectiveDateTime": "2010-11-08T16:00:00-05:00",
        "performer": [
          {
            "reference": "Practitioner/Practitioner-2521",
            "display": "Heather Fuentes Guerra MD"
          }
        ],
        "valueQuantity": {
          "value": 0.0,
          "unit": "kg"
        }
      },
      "request": {
        "method": "PUT",
        "url": "http://localhost:8080/cqf-ruler/baseDstu3Observation/Observation-469383"
      }
    },
    {
      "fullUrl": "http://localhost:8080/cqf-ruler/baseDstu3Observation/Observation-469384",
      "resource": {
        "resourceType": "Observation",
        "id": "Observation-469384",
        "status": "final",
        "code": {
          "coding": [
            {
              "system": "http://loinc.org",
              "code": "39156-5",
              "display": "BMI"
            }
          ]
        },
        "subject": {
          "reference": "Patient/Patient-6544",
          "display": "Ted Griffith Briggs"
        },
        "context": {
          "reference": "Encounter/Encounter-2153",
          "display": "Wellness Visit"
        },
        "effectiveDateTime": "2010-11-08T16:00:00-05:00",
        "performer": [
          {
            "reference": "Practitioner/Practitioner-2521",
            "display": "Heather Fuentes Guerra MD"
          }
        ],
        "valueQuantity": {
          "value": 0.0,
          "unit": "kg/m2"
        }
      },
      "request": {
        "method": "PUT",
        "url": "http://localhost:8080/cqf-ruler/baseDstu3Observation/Observation-469384"
      }
    },
    {
      "fullUrl": "http://localhost:8080/cqf-ruler/baseDstu3Observation/Observation-469385",
      "resource": {
        "resourceType": "Observation",
        "id": "Observation-469385",
        "status": "final",
        "code": {
          "coding": [
            {
              "system": "http://loinc.org",
              "code": "8310-5",
              "display": "Temperature"
            }
          ]
        },
        "subject": {
          "reference": "Patient/Patient-6544",
          "display": "Ted Griffith Briggs"
        },
        "context": {
          "reference": "Encounter/Encounter-2153",
          "display": "Wellness Visit"
        },
        "effectiveDateTime": "2010-11-08T16:00:00-05:00",
        "performer": [
          {
            "reference": "Practitioner/Practitioner-2521",
            "display": "Heather Fuentes Guerra MD"
          }
        ],
        "valueQuantity": {
          "value": 37.0,
          "unit": "C"
        }
      },
      "request": {
        "method": "PUT",
        "url": "http://localhost:8080/cqf-ruler/baseDstu3Observation/Observation-469385"
      }
    },
    {
      "fullUrl": "http://localhost:8080/cqf-ruler/baseDstu3Observation/Observation-469386",
      "resource": {
        "resourceType": "Observation",
        "id": "Observation-469386",
        "status": "final",
        "code": {
          "coding": [
            {
              "system": "http://loinc.org",
              "code": "8459-0",
              "display": "Systolic Blood Pressure"
            }
          ]
        },
        "subject": {
          "reference": "Patient/Patient-6544",
          "display": "Ted Griffith Briggs"
        },
        "context": {
          "reference": "Encounter/Encounter-2153",
          "display": "Wellness Visit"
        },
        "effectiveDateTime": "2010-11-08T16:00:00-05:00",
        "performer": [
          {
            "reference": "Practitioner/Practitioner-2521",
            "display": "Heather Fuentes Guerra MD"
          }
        ],
        "valueQuantity": {
          "value": 131.85294887150528,
          "unit": "mmHg"
        }
      },
      "request": {
        "method": "PUT",
        "url": "http://localhost:8080/cqf-ruler/baseDstu3Observation/Observation-469386"
      }
    },
    {
      "fullUrl": "http://localhost:8080/cqf-ruler/baseDstu3Observation/Observation-469387",
      "resource": {
        "resourceType": "Observation",
        "id": "Observation-469387",
        "status": "final",
        "code": {
          "coding": [
            {
              "system": "http://loinc.org",
              "code": "8453-3",
              "display": "Diastolic Blood Pressure"
            }
          ]
        },
        "subject": {
          "reference": "Patient/Patient-6544",
          "display": "Ted Griffith Briggs"
        },
        "context": {
          "reference": "Encounter/Encounter-2153",
          "display": "Wellness Visit"
        },
        "effectiveDateTime": "2010-11-08T16:00:00-05:00",
        "performer": [
          {
            "reference": "Practitioner/Practitioner-2521",
            "display": "Heather Fuentes Guerra MD"
          }
        ],
        "valueQuantity": {
          "value": 88.56397152476194,
          "unit": "mmHg"
        }
      },
      "request": {
        "method": "PUT",
        "url": "http://localhost:8080/cqf-ruler/baseDstu3Observation/Observation-469387"
      }
    },
    {
      "fullUrl": "http://localhost:8080/cqf-ruler/baseDstu3DiagnosticReport/DiagnosticReport-469381",
      "resource": {
        "resourceType": "DiagnosticReport",
        "id": "DiagnosticReport-469381",
        "status": "final",
        "code": {
          "coding": [
            {
              "system": "http://loinc.org",
              "code": "8716-3",
              "display": "Vital Signs Panel"
            }
          ]
        },
        "subject": {
          "reference": "Patient/Patient-6544",
          "display": "Ted Griffith Briggs"
        },
        "context": {
          "reference": "Encounter/Encounter-2153",
          "display": "Wellness Visit"
        },
        "effectivePeriod": {
          "start": "2010-11-08T16:00:00-05:00",
          "end": "2010-11-08T16:00:00-05:00"
        },
        "issued": "2010-11-08T16:00:00.000-05:00",
        "result": [
          {
            "reference": "Observation/Observation-469382",
            "display": "Height"
          },
          {
            "reference": "Observation/Observation-469383",
            "display": "Weight"
          },
          {
            "reference": "Observation/Observation-469384",
            "display": "BMI"
          },
          {
            "reference": "Observation/Observation-469385",
            "display": "Temperature"
          },
          {
            "reference": "Observation/Observation-469386",
            "display": "Systolic Blood Pressure"
          },
          {
            "reference": "Observation/Observation-469387",
            "display": "Diastolic Blood Pressure"
          }
        ]
      },
      "request": {
        "method": "PUT",
        "url": "http://localhost:8080/cqf-ruler/baseDstu3DiagnosticReport/DiagnosticReport-469381"
      }
    }
  ]
}