{
  "resourceType": "Bundle",
  "id": "Ted-Griffith-Briggs-6544-Encounter-2090",
  "type": "transaction",
  "entry": [
    {
      "fullUrl": "http://localhost:8080/cqf-ruler/baseDstu3Encounter/Encounter-2090",
      "resource": {
        "resourceType": "Encounter",
        "id": "Encounter-2090",
        "status": "finished",
        "class": {
          "system": "http://hl7.org/fhir/encounter-class",
          "code": "outpatient",
          "display": "Inpatient"
        },
        "subject": {
          "reference": "Patient/Patient-6544",
          "display": "Ted Griffith Briggs"
        },
        "participant": [
          {
            "period": {
              "start": "2010-06-09T15:00:00-04:00",
              "end": "2010-06-09T15:00:00-04:00"
            },
            "individual": {
              "reference": "Practitioner/Practitioner-2521",
              "display": "Heather Fuentes Guerra MD"
            }
          }
        ],
        "period": {
          "start": "2010-06-09T15:00:00-04:00",
          "end": "2010-06-09T15:00:00-04:00"
        },
        "location": [
          {
            "location": {
              "reference": "Location/Location-1106",
              "display": "Cranston Family Medical"
            }
          }
        ],
        "serviceProvider": {
          "reference": "Organization/Organization-1106",
          "display": "Cranston Family Medical"
        }
      },
      "request": {
        "method": "PUT",
        "url": "http://localhost:8080/cqf-ruler/baseDstu3Encounter/Encounter-2090"
      }
    },
    {
      "fullUrl": "http://localhost:8080/cqf-ruler/baseDstu3Observation/Observation-459227",
      "resource": {
        "resourceType": "Observation",
        "id": "Observation-459227",
        "status": "final",
        "code": {
          "coding": [
            {
              "system": "http://loinc.org",
              "code": "8302-2",
              "display": "Height"
            }
          ]
        },
        "subject": {
          "reference": "Patient/Patient-6544",
          "display": "Ted Griffith Briggs"
        },
        "context": {
          "reference": "Encounter/Encounter-2090",
          "display": "Wellness Visit"
        },
        "effectiveDateTime": "2010-06-09T15:00:00-04:00",
        "performer": [
          {
            "reference": "Practitioner/Practitioner-2521",
            "display": "Heather Fuentes Guerra MD"
          }
        ],
        "valueQuantity": {
          "value": 0.0,
          "unit": "cm"
        }
      },
      "request": {
        "method": "PUT",
        "url": "http://localhost:8080/cqf-ruler/baseDstu3Observation/Observation-459227"
      }
    },
    {
      "fullUrl": "http://localhost:8080/cqf-ruler/baseDstu3Observation/Observation-459228",
      "resource": {
        "resourceType": "Observation",
        "id": "Observation-459228",
        "status": "final",
        "code": {
          "coding": [
            {
              "system": "http://loinc.org",
              "code": "29463-7",
              "display": "Weight"
            }
          ]
        },
        "subject": {
          "reference": "Patient/Patient-6544",
          "display": "Ted Griffith Briggs"
        },
        "context": {
          "reference": "Encounter/Encounter-2090",
          "display": "Wellness Visit"
        },
        "effectiveDateTime": "2010-06-09T15:00:00-04:00",
        "performer": [
          {
            "reference": "Practitioner/Practitioner-2521",
            "display": "Heather Fuentes Guerra MD"
          }
        ],
        "valueQuantity": {
          "value": 0.0,
          "unit": "kg"
        }
      },
      "request": {
        "method": "PUT",
        "url": "http://localhost:8080/cqf-ruler/baseDstu3Observation/Observation-459228"
      }
    },
    {
      "fullUrl": "http://localhost:8080/cqf-ruler/baseDstu3Observation/Observation-459229",
      "resource": {
        "resourceType": "Observation",
        "id": "Observation-459229",
        "status": "final",
        "code": {
          "coding": [
            {
              "system": "http://loinc.org",
              "code": "39156-5",
              "display": "BMI"
            }
          ]
        },
        "subject": {
          "reference": "Patient/Patient-6544",
          "display": "Ted Griffith Briggs"
        },
        "context": {
          "reference": "Encounter/Encounter-2090",
          "display": "Wellness Visit"
        },
        "effectiveDateTime": "2010-06-09T15:00:00-04:00",
        "performer": [
          {
            "reference": "Practitioner/Practitioner-2521",
            "display": "Heather Fuentes Guerra MD"
          }
        ],
        "valueQuantity": {
          "value": 0.0,
          "unit": "kg/m2"
        }
      },
      "request": {
        "method": "PUT",
        "url": "http://localhost:8080/cqf-ruler/baseDstu3Observation/Observation-459229"
      }
    },
    {
      "fullUrl": "http://localhost:8080/cqf-ruler/baseDstu3Observation/Observation-459230",
      "resource": {
        "resourceType": "Observation",
        "id": "Observation-459230",
        "status": "final",
        "code": {
          "coding": [
            {
              "system": "http://loinc.org",
              "code": "8310-5",
              "display": "Temperature"
            }
          ]
        },
        "subject": {
          "reference": "Patient/Patient-6544",
          "display": "Ted Griffith Briggs"
        },
        "context": {
          "reference": "Encounter/Encounter-2090",
          "display": "Wellness Visit"
        },
        "effectiveDateTime": "2010-06-09T15:00:00-04:00",
        "performer": [
          {
            "reference": "Practitioner/Practitioner-2521",
            "display": "Heather Fuentes Guerra MD"
          }
        ],
        "valueQuantity": {
          "value": 37.0,
          "unit": "C"
        }
      },
      "request": {
        "method": "PUT",
        "url": "http://localhost:8080/cqf-ruler/baseDstu3Observation/Observation-459230"
      }
    },
    {
      "fullUrl": "http://localhost:8080/cqf-ruler/baseDstu3Observation/Observation-459231",
      "resource": {
        "resourceType": "Observation",
        "id": "Observation-459231",
        "status": "final",
        "code": {
          "coding": [
            {
              "system": "http://loinc.org",
              "code": "8459-0",
              "display": "Systolic Blood Pressure"
            }
          ]
        },
        "subject": {
          "reference": "Patient/Patient-6544",
          "display": "Ted Griffith Briggs"
        },
        "context": {
          "reference": "Encounter/Encounter-2090",
          "display": "Wellness Visit"
        },
        "effectiveDateTime": "2010-06-09T15:00:00-04:00",
        "performer": [
          {
            "reference": "Practitioner/Practitioner-2521",
            "display": "Heather Fuentes Guerra MD"
          }
        ],
        "valueQuantity": {
          "value": 131.88847570388265,
          "unit": "mmHg"
        }
      },
      "request": {
        "method": "PUT",
        "url": "http://localhost:8080/cqf-ruler/baseDstu3Observation/Observation-459231"
      }
    },
    {
      "fullUrl": "http://localhost:8080/cqf-ruler/baseDstu3Observation/Observation-459232",
      "resource": {
        "resourceType": "Observation",
        "id": "Observation-459232",
        "status": "final",
        "code": {
          "coding": [
            {
              "system": "http://loinc.org",
              "code": "8453-3",
              "display": "Diastolic Blood Pressure"
            }
          ]
        },
        "subject": {
          "reference": "Patient/Patient-6544",
          "display": "Ted Griffith Briggs"
        },
        "context": {
          "reference": "Encounter/Encounter-2090",
          "display": "Wellness Visit"
        },
        "effectiveDateTime": "2010-06-09T15:00:00-04:00",
        "performer": [
          {
            "reference": "Practitioner/Practitioner-2521",
            "display": "Heather Fuentes Guerra MD"
          }
        ],
        "valueQuantity": {
          "value": 88.54342470454162,
          "unit": "mmHg"
        }
      },
      "request": {
        "method": "PUT",
        "url": "http://localhost:8080/cqf-ruler/baseDstu3Observation/Observation-459232"
      }
    },
    {
      "fullUrl": "http://localhost:8080/cqf-ruler/baseDstu3DiagnosticReport/DiagnosticReport-459226",
      "resource": {
        "resourceType": "DiagnosticReport",
        "id": "DiagnosticReport-459226",
        "status": "final",
        "code": {
          "coding": [
            {
              "system": "http://loinc.org",
              "code": "8716-3",
              "display": "Vital Signs Panel"
            }
          ]
        },
        "subject": {
          "reference": "Patient/Patient-6544",
          "display": "Ted Griffith Briggs"
        },
        "context": {
          "reference": "Encounter/Encounter-2090",
          "display": "Wellness Visit"
        },
        "effectivePeriod": {
          "start": "2010-06-09T15:00:00-04:00",
          "end": "2010-06-09T15:00:00-04:00"
        },
        "issued": "2010-06-09T15:00:00.000-04:00",
        "result": [
          {
            "reference": "Observation/Observation-459227",
            "display": "Height"
          },
          {
            "reference": "Observation/Observation-459228",
            "display": "Weight"
          },
          {
            "reference": "Observation/Observation-459229",
            "display": "BMI"
          },
          {
            "reference": "Observation/Observation-459230",
            "display": "Temperature"
          },
          {
            "reference": "Observation/Observation-459231",
            "display": "Systolic Blood Pressure"
          },
          {
            "reference": "Observation/Observation-459232",
            "display": "Diastolic Blood Pressure"
          }
        ]
      },
      "request": {
        "method": "PUT",
        "url": "http://localhost:8080/cqf-ruler/baseDstu3DiagnosticReport/DiagnosticReport-459226"
      }
    }
  ]
}