{
  "resourceType": "Bundle",
  "id": "Jordan-Webb-Moses-Jr-6547-Encounter-555",
  "type": "transaction",
  "entry": [
    {
      "fullUrl": "http://localhost:8080/cqf-ruler/baseDstu3/Encounter/Encounter-555",
      "resource": {
        "resourceType": "Encounter",
        "id": "Encounter-555",
        "meta": {
          "profile": [
            "http://hl7.org/fhir/us/hedis/StructureDefinition/hedis-encounter"
          ]
        },
        "status": "finished",
        "class": {
          "system": "http://hl7.org/fhir/encounter-class",
          "code": "outpatient",
          "display": "Outpatient"
        },
        "type": [
          {
            "coding": [
              {
                "system": "http://snomed.info/sct",
                "code": "185349003",
                "display": "Wellness Visit"
              }
            ]
          }
        ],
        "subject": {
          "reference": "Patient/Patient-6547",
          "display": "Jordan Webb Moses Jr"
        },
        "participant": [
          {
            "period": {
              "start": "1994-02-04T00:00:00-05:00",
              "end": "1994-02-04T00:00:00-05:00"
            },
            "individual": {
              "reference": "Practitioner/Practitioner-2524",
              "display": "Willie Vincent Riddle MD"
            }
          }
        ],
        "period": {
          "start": "1994-02-04T00:00:00-05:00",
          "end": "1994-02-04T00:00:00-05:00"
        },
        "location": [
          {
            "location": {
              "reference": "Location/Location-1103",
              "display": "Acme Medical Center"
            }
          }
        ],
        "serviceProvider": {
          "reference": "Organization/Organization-1103",
          "display": "Acme Medical Center"
        }
      },
      "request": {
        "method": "PUT",
        "url": "http://localhost:8080/cqf-ruler/baseDstu3/Encounter/Encounter-555"
      }
    },
    {
      "fullUrl": "http://localhost:8080/cqf-ruler/baseDstu3/Immunization/Immunization-76024",
      "resource": {
        "resourceType": "Immunization",
        "id": "Immunization-76024",
        "status": "completed",
        "notGiven": false,
        "vaccineCode": {
          "coding": [
            {
              "system": "http://hl7.org/fhir/sid/cvx",
              "code": "140",
              "display": "Influenza, seasonal, injectable, preservative free"
            }
          ]
        },
        "patient": {
          "reference": "Patient/Patient-6547",
          "display": "Jordan Webb Moses Jr"
        },
        "date": "1994-02-04T00:00:00-05:00",
        "primarySource": true,
        "location": {
          "reference": "Location/Location-1103",
          "display": "Acme Medical Center"
        },
        "practitioner": [
          {
            "actor": {
              "reference": "Practitioner/Practitioner-2524",
              "display": "Willie Vincent Riddle MD"
            }
          }
        ]
      },
      "request": {
        "method": "PUT",
        "url": "http://localhost:8080/cqf-ruler/baseDstu3/Immunization/Immunization-76024"
      }
    },
    {
      "fullUrl": "http://localhost:8080/cqf-ruler/baseDstu3/Procedure/Procedure-116308",
      "resource": {
        "resourceType": "Procedure",
        "id": "Procedure-116308",
        "meta": {
          "profile": [
            "http://hl7.org/fhir/us/hedis/StructureDefinition/hedis-procedure"
          ]
        },
        "status": "completed",
        "code": {
          "coding": [
            {
              "system": "http://snomed.info/sct",
              "code": "713107002",
              "display": "Screening for alcohol abuse (procedure)"
            }
          ]
        },
        "subject": {
          "reference": "Patient/Patient-6547",
          "display": "Jordan Webb Moses Jr"
        },
        "context": {
          "reference": "Encounter/Encounter-555",
          "display": "Wellness Visit"
        },
        "performedPeriod": {
          "start": "1994-02-04T00:00:00-05:00",
          "end": "1994-02-04T00:00:00-05:00"
        },
        "performer": [
          {
            "actor": {
              "reference": "Practitioner/Practitioner-2524",
              "display": "Willie Vincent Riddle MD"
            }
          }
        ],
        "location": {
          "reference": "Location/Location-1103",
          "display": "Acme Medical Center"
        }
      },
      "request": {
        "method": "PUT",
        "url": "http://localhost:8080/cqf-ruler/baseDstu3/Procedure/Procedure-116308"
      }
    },
    {
      "fullUrl": "http://localhost:8080/cqf-ruler/baseDstu3/Observation/Observation-116309",
      "resource": {
        "resourceType": "Observation",
        "id": "Observation-116309",
        "meta": {
          "profile": [
            "http://hl7.org/fhir/us/hedis/StructureDefinition/hedis-observation"
          ]
        },
        "status": "final",
        "code": {
          "coding": [
            {
              "system": "http://snomed.info/sct",
              "code": "704197006",
              "display": "Admits alcohol use (finding) "
            }
          ]
        },
        "subject": {
          "reference": "Patient/Patient-6547",
          "display": "Jordan Webb Moses Jr"
        },
        "context": {
          "reference": "Encounter/Encounter-555",
          "display": "Wellness Visit"
        },
        "effectiveDateTime": "1994-02-04T00:00:00-05:00",
        "performer": [
          {
            "reference": "Practitioner/Practitioner-2524",
            "display": "Willie Vincent Riddle MD"
          }
        ],
        "valueQuantity": {
          "value": 3.0,
          "unit": "drinks/day"
        }
      },
      "request": {
        "method": "PUT",
        "url": "http://localhost:8080/cqf-ruler/baseDstu3/Observation/Observation-116309"
      }
    },
    {
      "fullUrl": "http://localhost:8080/cqf-ruler/baseDstu3/Observation/Observation-116310",
      "resource": {
        "resourceType": "Observation",
        "id": "Observation-116310",
        "meta": {
          "profile": [
            "http://hl7.org/fhir/us/hedis/StructureDefinition/hedis-observation"
          ]
        },
        "status": "final",
        "code": {
          "coding": [
            {
              "system": "http://loinc.org",
              "code": "8480-6",
              "display": "Systolic blood pressure"
            }
          ]
        },
        "subject": {
          "reference": "Patient/Patient-6547",
          "display": "Jordan Webb Moses Jr"
        },
        "context": {
          "reference": "Encounter/Encounter-555",
          "display": "Wellness Visit"
        },
        "effectiveDateTime": "1994-02-04T00:00:00-05:00",
        "performer": [
          {
            "reference": "Practitioner/Practitioner-2524",
            "display": "Willie Vincent Riddle MD"
          }
        ],
        "valueQuantity": {
          "value": 103.12114246029601,
          "unit": "mmHg"
        }
      },
      "request": {
        "method": "PUT",
        "url": "http://localhost:8080/cqf-ruler/baseDstu3/Observation/Observation-116310"
      }
    },
    {
      "fullUrl": "http://localhost:8080/cqf-ruler/baseDstu3/Observation/Observation-116311",
      "resource": {
        "resourceType": "Observation",
        "id": "Observation-116311",
        "meta": {
          "profile": [
            "http://hl7.org/fhir/us/hedis/StructureDefinition/hedis-observation"
          ]
        },
        "status": "final",
        "code": {
          "coding": [
            {
              "system": "http://loinc.org",
              "code": "8462-4",
              "display": "Diastolic blood pressure"
            }
          ]
        },
        "subject": {
          "reference": "Patient/Patient-6547",
          "display": "Jordan Webb Moses Jr"
        },
        "context": {
          "reference": "Encounter/Encounter-555",
          "display": "Wellness Visit"
        },
        "effectiveDateTime": "1994-02-04T00:00:00-05:00",
        "performer": [
          {
            "reference": "Practitioner/Practitioner-2524",
            "display": "Willie Vincent Riddle MD"
          }
        ],
        "valueQuantity": {
          "value": 70.69693959284967,
          "unit": "mmHg"
        }
      },
      "request": {
        "method": "PUT",
        "url": "http://localhost:8080/cqf-ruler/baseDstu3/Observation/Observation-116311"
      }
    },
    {
      "fullUrl": "http://localhost:8080/cqf-ruler/baseDstu3/Procedure/Procedure-116312",
      "resource": {
        "resourceType": "Procedure",
        "id": "Procedure-116312",
        "meta": {
          "profile": [
            "http://hl7.org/fhir/us/hedis/StructureDefinition/hedis-procedure"
          ]
        },
        "status": "completed",
        "code": {
          "coding": [
            {
              "system": "http://www.ama-assn.org/go/cpt",
              "code": "82270",
              "display": "Blood, occult, by peroxidase activity (eg, guaiac), qualitative; feces, consecutive collected specimens with single determination, for colorectal neoplasm screening (ie, patient was provided 3 cards or single triple card for consecutive collection)"
            }
          ]
        },
        "subject": {
          "reference": "Patient/Patient-6547",
          "display": "Jordan Webb Moses Jr"
        },
        "context": {
          "reference": "Encounter/Encounter-555",
          "display": "Wellness Visit"
        },
        "performedPeriod": {
          "start": "1994-02-04T00:00:00-05:00",
          "end": "1994-02-04T00:00:00-05:00"
        },
        "performer": [
          {
            "actor": {
              "reference": "Practitioner/Practitioner-2524",
              "display": "Willie Vincent Riddle MD"
            }
          }
        ],
        "location": {
          "reference": "Location/Location-1103",
          "display": "Acme Medical Center"
        }
      },
      "request": {
        "method": "PUT",
        "url": "http://localhost:8080/cqf-ruler/baseDstu3/Procedure/Procedure-116312"
      }
    },
    {
      "fullUrl": "http://localhost:8080/cqf-ruler/baseDstu3/Observation/Observation-116313",
      "resource": {
        "resourceType": "Observation",
        "id": "Observation-116313",
        "meta": {
          "profile": [
            "http://hl7.org/fhir/us/hedis/StructureDefinition/hedis-observation"
          ]
        },
        "status": "final",
        "code": {
          "coding": [
            {
              "system": "http://www.ama-assn.org/go/cpt",
              "code": "82274",
              "display": "Blood, occult, by fecal hemoglobin determination by immunoassay, qualitative, feces, 1-3 simultaneous determinations"
            }
          ]
        },
        "subject": {
          "reference": "Patient/Patient-6547",
          "display": "Jordan Webb Moses Jr"
        },
        "context": {
          "reference": "Encounter/Encounter-555",
          "display": "Wellness Visit"
        },
        "effectiveDateTime": "1994-02-04T00:00:00-05:00",
        "performer": [
          {
            "reference": "Practitioner/Practitioner-2524",
            "display": "Willie Vincent Riddle MD"
          }
        ],
        "valueString": "NEGATIVE"
      },
      "request": {
        "method": "PUT",
        "url": "http://localhost:8080/cqf-ruler/baseDstu3/Observation/Observation-116313"
      }
    },
    {
      "fullUrl": "http://localhost:8080/cqf-ruler/baseDstu3/Observation/Observation-116314",
      "resource": {
        "resourceType": "Observation",
        "id": "Observation-116314",
        "meta": {
          "profile": [
            "http://hl7.org/fhir/us/hedis/StructureDefinition/hedis-observation"
          ]
        },
        "status": "final",
        "code": {
          "coding": [
            {
              "system": "http://loinc.org",
              "code": "8302-2",
              "display": "Body Height"
            }
          ]
        },
        "subject": {
          "reference": "Patient/Patient-6547",
          "display": "Jordan Webb Moses Jr"
        },
        "context": {
          "reference": "Encounter/Encounter-555",
          "display": "Wellness Visit"
        },
        "effectiveDateTime": "1994-02-04T00:00:00-05:00",
        "performer": [
          {
            "reference": "Practitioner/Practitioner-2524",
            "display": "Willie Vincent Riddle MD"
          }
        ],
        "valueQuantity": {
          "value": 186.0,
          "unit": "cm"
        }
      },
      "request": {
        "method": "PUT",
        "url": "http://localhost:8080/cqf-ruler/baseDstu3/Observation/Observation-116314"
      }
    },
    {
      "fullUrl": "http://localhost:8080/cqf-ruler/baseDstu3/Observation/Observation-116315",
      "resource": {
        "resourceType": "Observation",
        "id": "Observation-116315",
        "meta": {
          "profile": [
            "http://hl7.org/fhir/us/hedis/StructureDefinition/hedis-observation"
          ]
        },
        "status": "final",
        "code": {
          "coding": [
            {
              "system": "http://loinc.org",
              "code": "29463-7",
              "display": "Body Weight"
            }
          ]
        },
        "subject": {
          "reference": "Patient/Patient-6547",
          "display": "Jordan Webb Moses Jr"
        },
        "context": {
          "reference": "Encounter/Encounter-555",
          "display": "Wellness Visit"
        },
        "effectiveDateTime": "1994-02-04T00:00:00-05:00",
        "performer": [
          {
            "reference": "Practitioner/Practitioner-2524",
            "display": "Willie Vincent Riddle MD"
          }
        ],
        "valueQuantity": {
          "value": 99.88954854588604,
          "unit": "kg"
        }
      },
      "request": {
        "method": "PUT",
        "url": "http://localhost:8080/cqf-ruler/baseDstu3/Observation/Observation-116315"
      }
    },
    {
      "fullUrl": "http://localhost:8080/cqf-ruler/baseDstu3/Observation/Observation-116316",
      "resource": {
        "resourceType": "Observation",
        "id": "Observation-116316",
        "meta": {
          "profile": [
            "http://hl7.org/fhir/us/hedis/StructureDefinition/hedis-observation"
          ]
        },
        "status": "final",
        "code": {
          "coding": [
            {
              "system": "http://loinc.org",
              "code": "39156-5",
              "display": "Body Mass Index"
            }
          ]
        },
        "subject": {
          "reference": "Patient/Patient-6547",
          "display": "Jordan Webb Moses Jr"
        },
        "context": {
          "reference": "Encounter/Encounter-555",
          "display": "Wellness Visit"
        },
        "effectiveDateTime": "1994-02-04T00:00:00-05:00",
        "performer": [
          {
            "reference": "Practitioner/Practitioner-2524",
            "display": "Willie Vincent Riddle MD"
          }
        ],
        "valueQuantity": {
          "value": 28.873149654840454,
          "unit": "kg/m2"
        }
      },
      "request": {
        "method": "PUT",
        "url": "http://localhost:8080/cqf-ruler/baseDstu3/Observation/Observation-116316"
      }
    },
    {
      "fullUrl": "http://localhost:8080/cqf-ruler/baseDstu3/Observation/Observation-116319",
      "resource": {
        "resourceType": "Observation",
        "id": "Observation-116319",
        "meta": {
          "profile": [
            "http://hl7.org/fhir/us/hedis/StructureDefinition/hedis-observation"
          ]
        },
        "status": "final",
        "code": {
          "coding": [
            {
              "system": "http://loinc.org",
              "code": "55284-4",
              "display": "Blood Pressure"
            }
          ]
        },
        "subject": {
          "reference": "Patient/Patient-6547",
          "display": "Jordan Webb Moses Jr"
        },
        "context": {
          "reference": "Encounter/Encounter-555",
          "display": "Wellness Visit"
        },
        "effectiveDateTime": "1994-02-04T00:00:00-05:00",
        "valueQuantity": {
          "value": 70.69693959284967,
          "unit": "mmHg"
        },
        "component": [
          {
            "code": {
              "coding": [
                {
                  "system": "http://loinc.org",
                  "code": "8480-6",
                  "display": "Systolic Blood Pressure"
                }
              ]
            }
          },
          {
            "code": {
              "coding": [
                {
                  "system": "http://loinc.org",
                  "code": "8462-4",
                  "display": "Diastolic Blood Pressure"
                }
              ]
            }
          }
        ]
      },
      "request": {
        "method": "PUT",
        "url": "http://localhost:8080/cqf-ruler/baseDstu3/Observation/Observation-116319"
      }
    },
    {
      "fullUrl": "http://localhost:8080/cqf-ruler/baseDstu3/Observation/Observation-116320",
      "resource": {
        "resourceType": "Observation",
        "id": "Observation-116320",
        "meta": {
          "profile": [
            "http://hl7.org/fhir/us/hedis/StructureDefinition/hedis-observation"
          ]
        },
        "status": "final",
        "code": {
          "coding": [
            {
              "system": "http://loinc.org",
              "code": "2093-3",
              "display": "Total Cholesterol"
            }
          ]
        },
        "subject": {
          "reference": "Patient/Patient-6547",
          "display": "Jordan Webb Moses Jr"
        },
        "context": {
          "reference": "Encounter/Encounter-555",
          "display": "Wellness Visit"
        },
        "effectiveDateTime": "1994-02-04T00:00:00-05:00",
        "performer": [
          {
            "reference": "Practitioner/Practitioner-2524",
            "display": "Willie Vincent Riddle MD"
          }
        ],
        "valueQuantity": {
          "value": 148.60792324812712,
          "unit": "mg/dL"
        }
      },
      "request": {
        "method": "PUT",
        "url": "http://localhost:8080/cqf-ruler/baseDstu3/Observation/Observation-116320"
      }
    },
    {
      "fullUrl": "http://localhost:8080/cqf-ruler/baseDstu3/Observation/Observation-116321",
      "resource": {
        "resourceType": "Observation",
        "id": "Observation-116321",
        "meta": {
          "profile": [
            "http://hl7.org/fhir/us/hedis/StructureDefinition/hedis-observation"
          ]
        },
        "status": "final",
        "code": {
          "coding": [
            {
              "system": "http://loinc.org",
              "code": "2571-8",
              "display": "Triglycerides"
            }
          ]
        },
        "subject": {
          "reference": "Patient/Patient-6547",
          "display": "Jordan Webb Moses Jr"
        },
        "context": {
          "reference": "Encounter/Encounter-555",
          "display": "Wellness Visit"
        },
        "effectiveDateTime": "1994-02-04T00:00:00-05:00",
        "performer": [
          {
            "reference": "Practitioner/Practitioner-2524",
            "display": "Willie Vincent Riddle MD"
          }
        ],
        "valueQuantity": {
          "value": 44.33951562507728,
          "unit": "mg/dL"
        }
      },
      "request": {
        "method": "PUT",
        "url": "http://localhost:8080/cqf-ruler/baseDstu3/Observation/Observation-116321"
      }
    },
    {
      "fullUrl": "http://localhost:8080/cqf-ruler/baseDstu3/Observation/Observation-116322",
      "resource": {
        "resourceType": "Observation",
        "id": "Observation-116322",
        "meta": {
          "profile": [
            "http://hl7.org/fhir/us/hedis/StructureDefinition/hedis-observation"
          ]
        },
        "status": "final",
        "code": {
          "coding": [
            {
              "system": "http://loinc.org",
              "code": "18262-6",
              "display": "Low Density Lipoprotein Cholesterol"
            }
          ]
        },
        "subject": {
          "reference": "Patient/Patient-6547",
          "display": "Jordan Webb Moses Jr"
        },
        "context": {
          "reference": "Encounter/Encounter-555",
          "display": "Wellness Visit"
        },
        "effectiveDateTime": "1994-02-04T00:00:00-05:00",
        "performer": [
          {
            "reference": "Practitioner/Practitioner-2524",
            "display": "Willie Vincent Riddle MD"
          }
        ],
        "valueQuantity": {
          "value": 87.12024900251303,
          "unit": "mg/dL"
        }
      },
      "request": {
        "method": "PUT",
        "url": "http://localhost:8080/cqf-ruler/baseDstu3/Observation/Observation-116322"
      }
    },
    {
      "fullUrl": "http://localhost:8080/cqf-ruler/baseDstu3/Observation/Observation-116323",
      "resource": {
        "resourceType": "Observation",
        "id": "Observation-116323",
        "meta": {
          "profile": [
            "http://hl7.org/fhir/us/hedis/StructureDefinition/hedis-observation"
          ]
        },
        "status": "final",
        "code": {
          "coding": [
            {
              "system": "http://loinc.org",
              "code": "2085-9",
              "display": "High Density Lipoprotein Cholesterol"
            }
          ]
        },
        "subject": {
          "reference": "Patient/Patient-6547",
          "display": "Jordan Webb Moses Jr"
        },
        "context": {
          "reference": "Encounter/Encounter-555",
          "display": "Wellness Visit"
        },
        "effectiveDateTime": "1994-02-04T00:00:00-05:00",
        "performer": [
          {
            "reference": "Practitioner/Practitioner-2524",
            "display": "Willie Vincent Riddle MD"
          }
        ],
        "valueQuantity": {
          "value": 52.619771120598635,
          "unit": "mg/dL"
        }
      },
      "request": {
        "method": "PUT",
        "url": "http://localhost:8080/cqf-ruler/baseDstu3/Observation/Observation-116323"
      }
    },
    {
      "fullUrl": "http://localhost:8080/cqf-ruler/baseDstu3/DiagnosticReport/DiagnosticReport-116324",
      "resource": {
        "resourceType": "DiagnosticReport",
        "id": "DiagnosticReport-116324",
        "meta": {
          "profile": [
            "http://hl7.org/fhir/us/hedis/StructureDefinition/hedis-diagnosticreport"
          ]
        },
        "status": "final",
        "category": {
          "coding": [
            {
              "system": "http://hl7.org/fhir/ValueSet/diagnostic-service-sections",
              "code": "LAB",
              "display": "Laboratory"
            }
          ]
        },
        "code": {
          "coding": [
            {
              "system": "http://loinc.org",
              "code": "57698-3",
              "display": "Lipid Panel"
            }
          ]
        },
        "subject": {
          "reference": "Patient/Patient-6547",
          "display": "Jordan Webb Moses Jr"
        },
        "context": {
          "reference": "Encounter/Encounter-555",
          "display": "Wellness Visit"
        },
        "effectivePeriod": {
          "start": "1994-02-04T00:00:00-05:00",
          "end": "1994-02-04T00:00:00-05:00"
        },
        "issued": "1994-02-04T00:00:00.000-05:00",
        "result": [
          {
            "reference": "Observation/Observation-116320",
            "display": "Record_Cholesterol"
          },
          {
            "reference": "Observation/Observation-116321",
            "display": "Record_Triglycerides"
          },
          {
            "reference": "Observation/Observation-116322",
            "display": "Record_LDL"
          },
          {
            "reference": "Observation/Observation-116323",
            "display": "Record_HDL"
          }
        ]
      },
      "request": {
        "method": "PUT",
        "url": "http://localhost:8080/cqf-ruler/baseDstu3/DiagnosticReport/DiagnosticReport-116324"
      }
    },
    {
      "fullUrl": "http://localhost:8080/cqf-ruler/baseDstu3/Observation/Observation-116326",
      "resource": {
        "resourceType": "Observation",
        "id": "Observation-116326",
        "status": "final",
        "code": {
          "coding": [
            {
              "system": "http://loinc.org",
              "code": "8302-2",
              "display": "Height"
            }
          ]
        },
        "subject": {
          "reference": "Patient/Patient-6547",
          "display": "Jordan Webb Moses Jr"
        },
        "context": {
          "reference": "Encounter/Encounter-555",
          "display": "Wellness Visit"
        },
        "effectiveDateTime": "1994-02-04T00:00:00-05:00",
        "performer": [
          {
            "reference": "Practitioner/Practitioner-2524",
            "display": "Willie Vincent Riddle MD"
          }
        ],
        "valueQuantity": {
          "value": 186.0,
          "unit": "cm"
        }
      },
      "request": {
        "method": "PUT",
        "url": "http://localhost:8080/cqf-ruler/baseDstu3/Observation/Observation-116326"
      }
    },
    {
      "fullUrl": "http://localhost:8080/cqf-ruler/baseDstu3/Observation/Observation-116327",
      "resource": {
        "resourceType": "Observation",
        "id": "Observation-116327",
        "status": "final",
        "code": {
          "coding": [
            {
              "system": "http://loinc.org",
              "code": "29463-7",
              "display": "Weight"
            }
          ]
        },
        "subject": {
          "reference": "Patient/Patient-6547",
          "display": "Jordan Webb Moses Jr"
        },
        "context": {
          "reference": "Encounter/Encounter-555",
          "display": "Wellness Visit"
        },
        "effectiveDateTime": "1994-02-04T00:00:00-05:00",
        "performer": [
          {
            "reference": "Practitioner/Practitioner-2524",
            "display": "Willie Vincent Riddle MD"
          }
        ],
        "valueQuantity": {
          "value": 99.88954854588604,
          "unit": "kg"
        }
      },
      "request": {
        "method": "PUT",
        "url": "http://localhost:8080/cqf-ruler/baseDstu3/Observation/Observation-116327"
      }
    },
    {
      "fullUrl": "http://localhost:8080/cqf-ruler/baseDstu3/Observation/Observation-116328",
      "resource": {
        "resourceType": "Observation",
        "id": "Observation-116328",
        "status": "final",
        "code": {
          "coding": [
            {
              "system": "http://loinc.org",
              "code": "39156-5",
              "display": "BMI"
            }
          ]
        },
        "subject": {
          "reference": "Patient/Patient-6547",
          "display": "Jordan Webb Moses Jr"
        },
        "context": {
          "reference": "Encounter/Encounter-555",
          "display": "Wellness Visit"
        },
        "effectiveDateTime": "1994-02-04T00:00:00-05:00",
        "performer": [
          {
            "reference": "Practitioner/Practitioner-2524",
            "display": "Willie Vincent Riddle MD"
          }
        ],
        "valueQuantity": {
          "value": 28.873149654840454,
          "unit": "kg/m2"
        }
      },
      "request": {
        "method": "PUT",
        "url": "http://localhost:8080/cqf-ruler/baseDstu3/Observation/Observation-116328"
      }
    },
    {
      "fullUrl": "http://localhost:8080/cqf-ruler/baseDstu3/Observation/Observation-116329",
      "resource": {
        "resourceType": "Observation",
        "id": "Observation-116329",
        "status": "final",
        "code": {
          "coding": [
            {
              "system": "http://loinc.org",
              "code": "8310-5",
              "display": "Temperature"
            }
          ]
        },
        "subject": {
          "reference": "Patient/Patient-6547",
          "display": "Jordan Webb Moses Jr"
        },
        "context": {
          "reference": "Encounter/Encounter-555",
          "display": "Wellness Visit"
        },
        "effectiveDateTime": "1994-02-04T00:00:00-05:00",
        "performer": [
          {
            "reference": "Practitioner/Practitioner-2524",
            "display": "Willie Vincent Riddle MD"
          }
        ],
        "valueQuantity": {
          "value": 37.0,
          "unit": "C"
        }
      },
      "request": {
        "method": "PUT",
        "url": "http://localhost:8080/cqf-ruler/baseDstu3/Observation/Observation-116329"
      }
    },
    {
      "fullUrl": "http://localhost:8080/cqf-ruler/baseDstu3/Observation/Observation-116330",
      "resource": {
        "resourceType": "Observation",
        "id": "Observation-116330",
        "status": "final",
        "code": {
          "coding": [
            {
              "system": "http://loinc.org",
              "code": "8459-0",
              "display": "Systolic Blood Pressure"
            }
          ]
        },
        "subject": {
          "reference": "Patient/Patient-6547",
          "display": "Jordan Webb Moses Jr"
        },
        "context": {
          "reference": "Encounter/Encounter-555",
          "display": "Wellness Visit"
        },
        "effectiveDateTime": "1994-02-04T00:00:00-05:00",
        "performer": [
          {
            "reference": "Practitioner/Practitioner-2524",
            "display": "Willie Vincent Riddle MD"
          }
        ],
        "valueQuantity": {
          "value": 103.12114246029601,
          "unit": "mmHg"
        }
      },
      "request": {
        "method": "PUT",
        "url": "http://localhost:8080/cqf-ruler/baseDstu3/Observation/Observation-116330"
      }
    },
    {
      "fullUrl": "http://localhost:8080/cqf-ruler/baseDstu3/Observation/Observation-116331",
      "resource": {
        "resourceType": "Observation",
        "id": "Observation-116331",
        "status": "final",
        "code": {
          "coding": [
            {
              "system": "http://loinc.org",
              "code": "8453-3",
              "display": "Diastolic Blood Pressure"
            }
          ]
        },
        "subject": {
          "reference": "Patient/Patient-6547",
          "display": "Jordan Webb Moses Jr"
        },
        "context": {
          "reference": "Encounter/Encounter-555",
          "display": "Wellness Visit"
        },
        "effectiveDateTime": "1994-02-04T00:00:00-05:00",
        "performer": [
          {
            "reference": "Practitioner/Practitioner-2524",
            "display": "Willie Vincent Riddle MD"
          }
        ],
        "valueQuantity": {
          "value": 70.69693959284967,
          "unit": "mmHg"
        }
      },
      "request": {
        "method": "PUT",
        "url": "http://localhost:8080/cqf-ruler/baseDstu3/Observation/Observation-116331"
      }
    },
    {
      "fullUrl": "http://localhost:8080/cqf-ruler/baseDstu3/DiagnosticReport/DiagnosticReport-116325",
      "resource": {
        "resourceType": "DiagnosticReport",
        "id": "DiagnosticReport-116325",
        "meta": {
          "profile": [
            "http://hl7.org/fhir/us/hedis/StructureDefinition/hedis-diagnosticreport"
          ]
        },
        "status": "final",
        "category": {
          "coding": [
            {
              "system": "http://hl7.org/fhir/ValueSet/diagnostic-service-sections",
              "code": "LAB",
              "display": "Laboratory"
            }
          ]
        },
        "code": {
          "coding": [
            {
              "system": "http://loinc.org",
              "code": "8716-3",
              "display": "Vital Signs Panel"
            }
          ]
        },
        "subject": {
          "reference": "Patient/Patient-6547",
          "display": "Jordan Webb Moses Jr"
        },
        "context": {
          "reference": "Encounter/Encounter-555",
          "display": "Wellness Visit"
        },
        "effectivePeriod": {
          "start": "1994-02-04T00:00:00-05:00",
          "end": "1994-02-04T00:00:00-05:00"
        },
        "issued": "1994-02-04T00:00:00.000-05:00",
        "result": [
          {
            "reference": "Observation/Observation-116326",
            "display": "Height"
          },
          {
            "reference": "Observation/Observation-116327",
            "display": "Weight"
          },
          {
            "reference": "Observation/Observation-116328",
            "display": "BMI"
          },
          {
            "reference": "Observation/Observation-116329",
            "display": "Temperature"
          },
          {
            "reference": "Observation/Observation-116330",
            "display": "Systolic Blood Pressure"
          },
          {
            "reference": "Observation/Observation-116331",
            "display": "Diastolic Blood Pressure"
          }
        ]
      },
      "request": {
        "method": "PUT",
        "url": "http://localhost:8080/cqf-ruler/baseDstu3/DiagnosticReport/DiagnosticReport-116325"
      }
    }
  ]
}