{
  "resourceType": "Bundle",
  "id": "Glen Hicks Jacobson-6511-Encounter-1127",
  "type": "transaction",
  "entry": [
    {
      "fullUrl": "http://localhost:8080/cqf-ruler/baseDstu3/Encounter/Encounter-1127",
      "resource": {
        "resourceType": "Encounter",
        "id": "Encounter-1127",
        "status": "finished",
        "class": {
          "system": "http://hl7.org/fhir/encounter-class",
          "code": "outpatient",
          "display": "Inpatient"
        },
        "subject": {
          "reference": "Patient/Patient-6511",
          "display": "Glen Hicks Jacobson"
        },
        "participant": [
          {
            "period": {
              "start": "1999-11-16T05:00:00-05:00",
              "end": "1999-11-16T05:00:00-05:00"
            },
            "individual": {
              "reference": "Practitioner/Practitioner-2528",
              "display": "Tanya Sally Wheeler MD"
            }
          }
        ],
        "period": {
          "start": "1999-11-16T05:00:00-05:00",
          "end": "1999-11-16T05:00:00-05:00"
        },
        "location": [
          {
            "location": {
              "reference": "Location/Location-1101",
              "display": "McKinley Health Center"
            }
          }
        ],
        "serviceProvider": {
          "reference": "Organization/Organization-1101",
          "display": "McKinley Health Center"
        }
      },
      "request": {
        "method": "PUT",
        "url": "http://localhost:8080/cqf-ruler/baseDstu3/Encounter/Encounter-1127"
      }
    },
    {
      "fullUrl": "http://localhost:8080/cqf-ruler/baseDstu3/Immunization/Immunization-210016",
      "resource": {
        "resourceType": "Immunization",
        "id": "Immunization-210016",
        "status": "completed",
        "notGiven": false,
        "vaccineCode": {
          "coding": [
            {
              "system": "http://hl7.org/fhir/sid/cvx",
              "code": "140",
              "display": "Influenza, seasonal, injectable, preservative free"
            }
          ]
        },
        "patient": {
          "reference": "Patient/Patient-6511",
          "display": "Glen Hicks Jacobson"
        },
        "date": "1999-11-16T05:00:00-05:00",
        "primarySource": true,
        "location": {
          "reference": "Location/Location-1101",
          "display": "McKinley Health Center"
        },
        "practitioner": [
          {
            "actor": {
              "reference": "Practitioner/Practitioner-2528",
              "display": "Tanya Sally Wheeler MD"
            }
          }
        ]
      },
      "request": {
        "method": "PUT",
        "url": "http://localhost:8080/cqf-ruler/baseDstu3/Immunization/Immunization-210016"
      }
    },
    {
      "fullUrl": "http://localhost:8080/cqf-ruler/baseDstu3/Observation/Observation-230171",
      "resource": {
        "resourceType": "Observation",
        "id": "Observation-230171",
        "status": "final",
        "code": {
          "coding": [
            {
              "system": "http://loinc.org",
              "code": "8302-2",
              "display": "Height"
            }
          ]
        },
        "subject": {
          "reference": "Patient/Patient-6511",
          "display": "Glen Hicks Jacobson"
        },
        "context": {
          "reference": "Encounter/Encounter-1127",
          "display": "McKinley Health Center"
        },
        "effectiveDateTime": "1999-11-16T05:00:00-05:00",
        "performer": [
          {
            "reference": "Practitioner/Practitioner-2528",
            "display": "Tanya Sally Wheeler MD"
          }
        ],
        "valueQuantity": {
          "value": 138.4,
          "unit": "cm"
        }
      },
      "request": {
        "method": "PUT",
        "url": "http://localhost:8080/cqf-ruler/baseDstu3/Observation/Observation-230171"
      }
    },
    {
      "fullUrl": "http://localhost:8080/cqf-ruler/baseDstu3/Observation/Observation-230172",
      "resource": {
        "resourceType": "Observation",
        "id": "Observation-230172",
        "status": "final",
        "code": {
          "coding": [
            {
              "system": "http://loinc.org",
              "code": "29463-7",
              "display": "Weight"
            }
          ]
        },
        "subject": {
          "reference": "Patient/Patient-6511",
          "display": "Glen Hicks Jacobson"
        },
        "context": {
          "reference": "Encounter/Encounter-1127",
          "display": "McKinley Health Center"
        },
        "effectiveDateTime": "1999-11-16T05:00:00-05:00",
        "performer": [
          {
            "reference": "Practitioner/Practitioner-2528",
            "display": "Tanya Sally Wheeler MD"
          }
        ],
        "valueQuantity": {
          "value": 0.0,
          "unit": "kg"
        }
      },
      "request": {
        "method": "PUT",
        "url": "http://localhost:8080/cqf-ruler/baseDstu3/Observation/Observation-230172"
      }
    },
    {
      "fullUrl": "http://localhost:8080/cqf-ruler/baseDstu3/Observation/Observation-230173",
      "resource": {
        "resourceType": "Observation",
        "id": "Observation-230173",
        "status": "final",
        "code": {
          "coding": [
            {
              "system": "http://loinc.org",
              "code": "39156-5",
              "display": "BMI"
            }
          ]
        },
        "subject": {
          "reference": "Patient/Patient-6511",
          "display": "Glen Hicks Jacobson"
        },
        "context": {
          "reference": "Encounter/Encounter-1127",
          "display": "McKinley Health Center"
        },
        "effectiveDateTime": "1999-11-16T05:00:00-05:00",
        "performer": [
          {
            "reference": "Practitioner/Practitioner-2528",
            "display": "Tanya Sally Wheeler MD"
          }
        ],
        "valueQuantity": {
          "value": 0.0,
          "unit": "kg/m2"
        }
      },
      "request": {
        "method": "PUT",
        "url": "http://localhost:8080/cqf-ruler/baseDstu3/Observation/Observation-230173"
      }
    },
    {
      "fullUrl": "http://localhost:8080/cqf-ruler/baseDstu3/Observation/Observation-230174",
      "resource": {
        "resourceType": "Observation",
        "id": "Observation-230174",
        "status": "final",
        "code": {
          "coding": [
            {
              "system": "http://loinc.org",
              "code": "8310-5",
              "display": "Temperature"
            }
          ]
        },
        "subject": {
          "reference": "Patient/Patient-6511",
          "display": "Glen Hicks Jacobson"
        },
        "context": {
          "reference": "Encounter/Encounter-1127",
          "display": "McKinley Health Center"
        },
        "effectiveDateTime": "1999-11-16T05:00:00-05:00",
        "performer": [
          {
            "reference": "Practitioner/Practitioner-2528",
            "display": "Tanya Sally Wheeler MD"
          }
        ],
        "valueQuantity": {
          "value": 37.0,
          "unit": "C"
        }
      },
      "request": {
        "method": "PUT",
        "url": "http://localhost:8080/cqf-ruler/baseDstu3/Observation/Observation-230174"
      }
    },
    {
      "fullUrl": "http://localhost:8080/cqf-ruler/baseDstu3/Observation/Observation-230175",
      "resource": {
        "resourceType": "Observation",
        "id": "Observation-230175",
        "status": "final",
        "code": {
          "coding": [
            {
              "system": "http://loinc.org",
              "code": "8459-0",
              "display": "Systolic Blood Pressure"
            }
          ]
        },
        "subject": {
          "reference": "Patient/Patient-6511",
          "display": "Glen Hicks Jacobson"
        },
        "context": {
          "reference": "Encounter/Encounter-1127",
          "display": "McKinley Health Center"
        },
        "effectiveDateTime": "1999-11-16T05:00:00-05:00",
        "performer": [
          {
            "reference": "Practitioner/Practitioner-2528",
            "display": "Tanya Sally Wheeler MD"
          }
        ],
        "valueQuantity": {
          "value": 118.11331099115876,
          "unit": "mmHg"
        }
      },
      "request": {
        "method": "PUT",
        "url": "http://localhost:8080/cqf-ruler/baseDstu3/Observation/Observation-230175"
      }
    },
    {
      "fullUrl": "http://localhost:8080/cqf-ruler/baseDstu3/Observation/Observation-230176",
      "resource": {
        "resourceType": "Observation",
        "id": "Observation-230176",
        "status": "final",
        "code": {
          "coding": [
            {
              "system": "http://loinc.org",
              "code": "8453-3",
              "display": "Diastolic Blood Pressure"
            }
          ]
        },
        "subject": {
          "reference": "Patient/Patient-6511",
          "display": "Glen Hicks Jacobson"
        },
        "context": {
          "reference": "Encounter/Encounter-1127",
          "display": "McKinley Health Center"
        },
        "effectiveDateTime": "1999-11-16T05:00:00-05:00",
        "performer": [
          {
            "reference": "Practitioner/Practitioner-2528",
            "display": "Tanya Sally Wheeler MD"
          }
        ],
        "valueQuantity": {
          "value": 78.25349636991851,
          "unit": "mmHg"
        }
      },
      "request": {
        "method": "PUT",
        "url": "http://localhost:8080/cqf-ruler/baseDstu3/Observation/Observation-230176"
      }
    },
    {
      "fullUrl": "http://localhost:8080/cqf-ruler/baseDstu3/DiagnosticReport/DiagnosticReport-230170",
      "resource": {
        "resourceType": "DiagnosticReport",
        "id": "DiagnosticReport-230170",
        "status": "final",
        "code": {
          "coding": [
            {
              "system": "http://loinc.org",
              "code": "8716-3",
              "display": "Vital Signs Panel"
            }
          ]
        },
        "subject": {
          "reference": "Patient/Patient-6511",
          "display": "Glen Hicks Jacobson"
        },
        "context": {
          "reference": "Encounter/Encounter-1127",
          "display": "McKinley Health Center"
        },
        "effectivePeriod": {
          "start": "1999-11-16T05:00:00-05:00",
          "end": "1999-11-16T05:00:00-05:00"
        },
        "issued": "1999-11-16T05:00:00.000-05:00",
        "result": [
          {
            "reference": "Observation/Observation-230171",
            "display": "Height"
          },
          {
            "reference": "Observation/Observation-230172",
            "display": "Weight"
          },
          {
            "reference": "Observation/Observation-230173",
            "display": "BMI"
          },
          {
            "reference": "Observation/Observation-230174",
            "display": "Temperature"
          },
          {
            "reference": "Observation/Observation-230175",
            "display": "Systolic Blood Pressure"
          },
          {
            "reference": "Observation/Observation-230176",
            "display": "Diastolic Blood Pressure"
          }
        ]
      },
      "request": {
        "method": "PUT",
        "url": "http://localhost:8080/cqf-ruler/baseDstu3/DiagnosticReport/DiagnosticReport-230170"
      }
    }
  ]
}