{
  "resourceType": "Bundle",
  "id": "Glen-Hicks-Jacobson-6511-Encounter-1041",
  "type": "transaction",
  "entry": [
    {
      "fullUrl": "http://localhost:8080/cqf-ruler/baseDstu3/Encounter/Encounter-1041",
      "resource": {
        "resourceType": "Encounter",
        "id": "Encounter-1041",
        "meta": {
          "profile": [
            "http://hl7.org/fhir/us/hedis/StructureDefinition/hedis-encounter"
          ]
        },
        "status": "finished",
        "class": {
          "system": "http://hl7.org/fhir/encounter-class",
          "code": "outpatient",
          "display": "Outpatient"
        },
        "type": [
          {
            "coding": [
              {
                "system": "http://snomed.info/sct",
                "code": "170258001",
                "display": "Wellness Visit"
              }
            ]
          }
        ],
        "subject": {
          "reference": "Patient/Patient-6511",
          "display": "Glen Hicks Jacobson"
        },
        "participant": [
          {
            "period": {
              "start": "1999-02-05T00:00:00-05:00",
              "end": "1999-02-05T00:00:00-05:00"
            },
            "individual": {
              "reference": "Practitioner/Practitioner-2528",
              "display": "Tanya Sally Wheeler MD"
            }
          }
        ],
        "period": {
          "start": "1999-02-05T00:00:00-05:00",
          "end": "1999-02-05T00:00:00-05:00"
        },
        "location": [
          {
            "location": {
              "reference": "Location/Location-1101",
              "display": "McKinley Health Center"
            }
          }
        ],
        "serviceProvider": {
          "reference": "Organization/Organization-1101",
          "display": "McKinley Health Center"
        }
      },
      "request": {
        "method": "PUT",
        "url": "http://localhost:8080/cqf-ruler/baseDstu3/Encounter/Encounter-1041"
      }
    },
    {
      "fullUrl": "http://localhost:8080/cqf-ruler/baseDstu3/Immunization/Immunization-198582",
      "resource": {
        "resourceType": "Immunization",
        "id": "Immunization-198582",
        "status": "completed",
        "notGiven": false,
        "vaccineCode": {
          "coding": [
            {
              "system": "http://hl7.org/fhir/sid/cvx",
              "code": "140",
              "display": "Influenza, seasonal, injectable, preservative free"
            }
          ]
        },
        "patient": {
          "reference": "Patient/Patient-6511",
          "display": "Glen Hicks Jacobson"
        },
        "date": "1999-02-05T00:00:00-05:00",
        "primarySource": true,
        "location": {
          "reference": "Location/Location-1101",
          "display": "McKinley Health Center"
        },
        "practitioner": [
          {
            "actor": {
              "reference": "Practitioner/Practitioner-2528",
              "display": "Tanya Sally Wheeler MD"
            }
          }
        ]
      },
      "request": {
        "method": "PUT",
        "url": "http://localhost:8080/cqf-ruler/baseDstu3/Immunization/Immunization-198582"
      }
    },
    {
      "fullUrl": "http://localhost:8080/cqf-ruler/baseDstu3/Observation/Observation-220165",
      "resource": {
        "resourceType": "Observation",
        "id": "Observation-220165",
        "meta": {
          "profile": [
            "http://hl7.org/fhir/us/hedis/StructureDefinition/hedis-observation"
          ]
        },
        "status": "final",
        "code": {
          "coding": [
            {
              "system": "http://loinc.org",
              "code": "8480-6",
              "display": "Systolic blood pressure"
            }
          ]
        },
        "subject": {
          "reference": "Patient/Patient-6511",
          "display": "Glen Hicks Jacobson"
        },
        "context": {
          "reference": "Encounter/Encounter-1041",
          "display": "Wellness Visit"
        },
        "effectiveDateTime": "1999-02-05T00:00:00-05:00",
        "performer": [
          {
            "reference": "Practitioner/Practitioner-2528",
            "display": "Tanya Sally Wheeler MD"
          }
        ],
        "valueQuantity": {
          "value": 113.35552373028905,
          "unit": "mmHg"
        }
      },
      "request": {
        "method": "PUT",
        "url": "http://localhost:8080/cqf-ruler/baseDstu3/Observation/Observation-220165"
      }
    },
    {
      "fullUrl": "http://localhost:8080/cqf-ruler/baseDstu3/Observation/Observation-220166",
      "resource": {
        "resourceType": "Observation",
        "id": "Observation-220166",
        "meta": {
          "profile": [
            "http://hl7.org/fhir/us/hedis/StructureDefinition/hedis-observation"
          ]
        },
        "status": "final",
        "code": {
          "coding": [
            {
              "system": "http://loinc.org",
              "code": "8462-4",
              "display": "Diastolic blood pressure"
            }
          ]
        },
        "subject": {
          "reference": "Patient/Patient-6511",
          "display": "Glen Hicks Jacobson"
        },
        "context": {
          "reference": "Encounter/Encounter-1041",
          "display": "Wellness Visit"
        },
        "effectiveDateTime": "1999-02-05T00:00:00-05:00",
        "performer": [
          {
            "reference": "Practitioner/Practitioner-2528",
            "display": "Tanya Sally Wheeler MD"
          }
        ],
        "valueQuantity": {
          "value": 94.62124178838882,
          "unit": "mmHg"
        }
      },
      "request": {
        "method": "PUT",
        "url": "http://localhost:8080/cqf-ruler/baseDstu3/Observation/Observation-220166"
      }
    },
    {
      "fullUrl": "http://localhost:8080/cqf-ruler/baseDstu3/Condition/Condition-220167",
      "resource": {
        "resourceType": "Condition",
        "id": "Condition-220167",
        "meta": {
          "profile": [
            "http://hl7.org/fhir/us/hedis/StructureDefinition/hedis-condition"
          ]
        },
        "clinicalStatus": "active",
        "verificationStatus": "confirmed",
        "code": {
          "coding": [
            {
              "system": "TBD",
              "code": "TBD",
              "display": "TBD"
            }
          ]
        },
        "subject": {
          "reference": "Patient/Patient-6511",
          "display": "Glen Hicks Jacobson"
        },
        "context": {
          "reference": "Encounter/Encounter-1041",
          "display": "Wellness Visit"
        },
        "onsetDateTime": "1999-02-05T00:00:00-05:00",
        "assertedDate": "1999-02-05T00:00:00-05:00",
        "asserter": {
          "reference": "Practitioner/Practitioner-2528",
          "display": "Tanya Sally Wheeler MD"
        }
      },
      "request": {
        "method": "PUT",
        "url": "http://localhost:8080/cqf-ruler/baseDstu3/Condition/Condition-220167"
      }
    },
    {
      "fullUrl": "http://localhost:8080/cqf-ruler/baseDstu3/Observation/Observation-220168",
      "resource": {
        "resourceType": "Observation",
        "id": "Observation-220168",
        "meta": {
          "profile": [
            "http://hl7.org/fhir/us/hedis/StructureDefinition/hedis-observation"
          ]
        },
        "status": "final",
        "code": {
          "coding": [
            {
              "system": "http://loinc.org",
              "code": "8302-2",
              "display": "Body Height"
            }
          ]
        },
        "subject": {
          "reference": "Patient/Patient-6511",
          "display": "Glen Hicks Jacobson"
        },
        "context": {
          "reference": "Encounter/Encounter-1041",
          "display": "Wellness Visit"
        },
        "effectiveDateTime": "1999-02-05T00:00:00-05:00",
        "performer": [
          {
            "reference": "Practitioner/Practitioner-2528",
            "display": "Tanya Sally Wheeler MD"
          }
        ],
        "valueQuantity": {
          "value": 138.9,
          "unit": "cm"
        }
      },
      "request": {
        "method": "PUT",
        "url": "http://localhost:8080/cqf-ruler/baseDstu3/Observation/Observation-220168"
      }
    },
    {
      "fullUrl": "http://localhost:8080/cqf-ruler/baseDstu3/Observation/Observation-220169",
      "resource": {
        "resourceType": "Observation",
        "id": "Observation-220169",
        "meta": {
          "profile": [
            "http://hl7.org/fhir/us/hedis/StructureDefinition/hedis-observation"
          ]
        },
        "status": "final",
        "code": {
          "coding": [
            {
              "system": "http://loinc.org",
              "code": "29463-7",
              "display": "Body Weight"
            }
          ]
        },
        "subject": {
          "reference": "Patient/Patient-6511",
          "display": "Glen Hicks Jacobson"
        },
        "context": {
          "reference": "Encounter/Encounter-1041",
          "display": "Wellness Visit"
        },
        "effectiveDateTime": "1999-02-05T00:00:00-05:00",
        "performer": [
          {
            "reference": "Practitioner/Practitioner-2528",
            "display": "Tanya Sally Wheeler MD"
          }
        ],
        "valueQuantity": {
          "value": 34.41385443713968,
          "unit": "kg"
        }
      },
      "request": {
        "method": "PUT",
        "url": "http://localhost:8080/cqf-ruler/baseDstu3/Observation/Observation-220169"
      }
    },
    {
      "fullUrl": "http://localhost:8080/cqf-ruler/baseDstu3/Observation/Observation-220170",
      "resource": {
        "resourceType": "Observation",
        "id": "Observation-220170",
        "meta": {
          "profile": [
            "http://hl7.org/fhir/us/hedis/StructureDefinition/hedis-observation"
          ]
        },
        "status": "final",
        "code": {
          "coding": [
            {
              "system": "http://loinc.org",
              "code": "39156-5",
              "display": "Body Mass Index"
            }
          ]
        },
        "subject": {
          "reference": "Patient/Patient-6511",
          "display": "Glen Hicks Jacobson"
        },
        "context": {
          "reference": "Encounter/Encounter-1041",
          "display": "Wellness Visit"
        },
        "effectiveDateTime": "1999-02-05T00:00:00-05:00",
        "performer": [
          {
            "reference": "Practitioner/Practitioner-2528",
            "display": "Tanya Sally Wheeler MD"
          }
        ],
        "valueQuantity": {
          "value": 17.837288059964973,
          "unit": "kg/m2"
        }
      },
      "request": {
        "method": "PUT",
        "url": "http://localhost:8080/cqf-ruler/baseDstu3/Observation/Observation-220170"
      }
    },
    {
      "fullUrl": "http://localhost:8080/cqf-ruler/baseDstu3/Observation/Observation-220173",
      "resource": {
        "resourceType": "Observation",
        "id": "Observation-220173",
        "meta": {
          "profile": [
            "http://hl7.org/fhir/us/hedis/StructureDefinition/hedis-observation"
          ]
        },
        "status": "final",
        "code": {
          "coding": [
            {
              "system": "http://loinc.org",
              "code": "55284-4",
              "display": "Blood Pressure"
            }
          ]
        },
        "subject": {
          "reference": "Patient/Patient-6511",
          "display": "Glen Hicks Jacobson"
        },
        "context": {
          "reference": "Encounter/Encounter-1041",
          "display": "Wellness Visit"
        },
        "effectiveDateTime": "1999-02-05T00:00:00-05:00",
        "valueQuantity": {
          "value": 94.62124178838882,
          "unit": "mmHg"
        },
        "component": [
          {
            "code": {
              "coding": [
                {
                  "system": "http://loinc.org",
                  "code": "8480-6",
                  "display": "Systolic Blood Pressure"
                }
              ]
            }
          },
          {
            "code": {
              "coding": [
                {
                  "system": "http://loinc.org",
                  "code": "8462-4",
                  "display": "Diastolic Blood Pressure"
                }
              ]
            }
          }
        ]
      },
      "request": {
        "method": "PUT",
        "url": "http://localhost:8080/cqf-ruler/baseDstu3/Observation/Observation-220173"
      }
    },
    {
      "fullUrl": "http://localhost:8080/cqf-ruler/baseDstu3/Observation/Observation-220175",
      "resource": {
        "resourceType": "Observation",
        "id": "Observation-220175",
        "status": "final",
        "code": {
          "coding": [
            {
              "system": "http://loinc.org",
              "code": "8302-2",
              "display": "Height"
            }
          ]
        },
        "subject": {
          "reference": "Patient/Patient-6511",
          "display": "Glen Hicks Jacobson"
        },
        "context": {
          "reference": "Encounter/Encounter-1041",
          "display": "Wellness Visit"
        },
        "effectiveDateTime": "1999-02-05T00:00:00-05:00",
        "performer": [
          {
            "reference": "Practitioner/Practitioner-2528",
            "display": "Tanya Sally Wheeler MD"
          }
        ],
        "valueQuantity": {
          "value": 138.9,
          "unit": "cm"
        }
      },
      "request": {
        "method": "PUT",
        "url": "http://localhost:8080/cqf-ruler/baseDstu3/Observation/Observation-220175"
      }
    },
    {
      "fullUrl": "http://localhost:8080/cqf-ruler/baseDstu3/Observation/Observation-220176",
      "resource": {
        "resourceType": "Observation",
        "id": "Observation-220176",
        "status": "final",
        "code": {
          "coding": [
            {
              "system": "http://loinc.org",
              "code": "29463-7",
              "display": "Weight"
            }
          ]
        },
        "subject": {
          "reference": "Patient/Patient-6511",
          "display": "Glen Hicks Jacobson"
        },
        "context": {
          "reference": "Encounter/Encounter-1041",
          "display": "Wellness Visit"
        },
        "effectiveDateTime": "1999-02-05T00:00:00-05:00",
        "performer": [
          {
            "reference": "Practitioner/Practitioner-2528",
            "display": "Tanya Sally Wheeler MD"
          }
        ],
        "valueQuantity": {
          "value": 34.41385443713968,
          "unit": "kg"
        }
      },
      "request": {
        "method": "PUT",
        "url": "http://localhost:8080/cqf-ruler/baseDstu3/Observation/Observation-220176"
      }
    },
    {
      "fullUrl": "http://localhost:8080/cqf-ruler/baseDstu3/Observation/Observation-220177",
      "resource": {
        "resourceType": "Observation",
        "id": "Observation-220177",
        "status": "final",
        "code": {
          "coding": [
            {
              "system": "http://loinc.org",
              "code": "39156-5",
              "display": "BMI"
            }
          ]
        },
        "subject": {
          "reference": "Patient/Patient-6511",
          "display": "Glen Hicks Jacobson"
        },
        "context": {
          "reference": "Encounter/Encounter-1041",
          "display": "Wellness Visit"
        },
        "effectiveDateTime": "1999-02-05T00:00:00-05:00",
        "performer": [
          {
            "reference": "Practitioner/Practitioner-2528",
            "display": "Tanya Sally Wheeler MD"
          }
        ],
        "valueQuantity": {
          "value": 17.837288059964973,
          "unit": "kg/m2"
        }
      },
      "request": {
        "method": "PUT",
        "url": "http://localhost:8080/cqf-ruler/baseDstu3/Observation/Observation-220177"
      }
    },
    {
      "fullUrl": "http://localhost:8080/cqf-ruler/baseDstu3/Observation/Observation-220178",
      "resource": {
        "resourceType": "Observation",
        "id": "Observation-220178",
        "status": "final",
        "code": {
          "coding": [
            {
              "system": "http://loinc.org",
              "code": "8310-5",
              "display": "Temperature"
            }
          ]
        },
        "subject": {
          "reference": "Patient/Patient-6511",
          "display": "Glen Hicks Jacobson"
        },
        "context": {
          "reference": "Encounter/Encounter-1041",
          "display": "Wellness Visit"
        },
        "effectiveDateTime": "1999-02-05T00:00:00-05:00",
        "performer": [
          {
            "reference": "Practitioner/Practitioner-2528",
            "display": "Tanya Sally Wheeler MD"
          }
        ],
        "valueQuantity": {
          "value": 37.0,
          "unit": "C"
        }
      },
      "request": {
        "method": "PUT",
        "url": "http://localhost:8080/cqf-ruler/baseDstu3/Observation/Observation-220178"
      }
    },
    {
      "fullUrl": "http://localhost:8080/cqf-ruler/baseDstu3/Observation/Observation-220179",
      "resource": {
        "resourceType": "Observation",
        "id": "Observation-220179",
        "status": "final",
        "code": {
          "coding": [
            {
              "system": "http://loinc.org",
              "code": "8459-0",
              "display": "Systolic Blood Pressure"
            }
          ]
        },
        "subject": {
          "reference": "Patient/Patient-6511",
          "display": "Glen Hicks Jacobson"
        },
        "context": {
          "reference": "Encounter/Encounter-1041",
          "display": "Wellness Visit"
        },
        "effectiveDateTime": "1999-02-05T00:00:00-05:00",
        "performer": [
          {
            "reference": "Practitioner/Practitioner-2528",
            "display": "Tanya Sally Wheeler MD"
          }
        ],
        "valueQuantity": {
          "value": 113.35552373028905,
          "unit": "mmHg"
        }
      },
      "request": {
        "method": "PUT",
        "url": "http://localhost:8080/cqf-ruler/baseDstu3/Observation/Observation-220179"
      }
    },
    {
      "fullUrl": "http://localhost:8080/cqf-ruler/baseDstu3/Observation/Observation-220180",
      "resource": {
        "resourceType": "Observation",
        "id": "Observation-220180",
        "status": "final",
        "code": {
          "coding": [
            {
              "system": "http://loinc.org",
              "code": "8453-3",
              "display": "Diastolic Blood Pressure"
            }
          ]
        },
        "subject": {
          "reference": "Patient/Patient-6511",
          "display": "Glen Hicks Jacobson"
        },
        "context": {
          "reference": "Encounter/Encounter-1041",
          "display": "Wellness Visit"
        },
        "effectiveDateTime": "1999-02-05T00:00:00-05:00",
        "performer": [
          {
            "reference": "Practitioner/Practitioner-2528",
            "display": "Tanya Sally Wheeler MD"
          }
        ],
        "valueQuantity": {
          "value": 94.62124178838882,
          "unit": "mmHg"
        }
      },
      "request": {
        "method": "PUT",
        "url": "http://localhost:8080/cqf-ruler/baseDstu3/Observation/Observation-220180"
      }
    },
    {
      "fullUrl": "http://localhost:8080/cqf-ruler/baseDstu3/DiagnosticReport/DiagnosticReport-220174",
      "resource": {
        "resourceType": "DiagnosticReport",
        "id": "DiagnosticReport-220174",
        "meta": {
          "profile": [
            "http://hl7.org/fhir/us/hedis/StructureDefinition/hedis-diagnosticreport"
          ]
        },
        "status": "final",
        "category": {
          "coding": [
            {
              "system": "http://hl7.org/fhir/ValueSet/diagnostic-service-sections",
              "code": "LAB",
              "display": "Laboratory"
            }
          ]
        },
        "code": {
          "coding": [
            {
              "system": "http://loinc.org",
              "code": "8716-3",
              "display": "Vital Signs Panel"
            }
          ]
        },
        "subject": {
          "reference": "Patient/Patient-6511",
          "display": "Glen Hicks Jacobson"
        },
        "context": {
          "reference": "Encounter/Encounter-1041",
          "display": "Wellness Visit"
        },
        "effectivePeriod": {
          "start": "1999-02-05T00:00:00-05:00",
          "end": "1999-02-05T00:00:00-05:00"
        },
        "issued": "1999-02-05T00:00:00.000-05:00",
        "result": [
          {
            "reference": "Observation/Observation-220175",
            "display": "Height"
          },
          {
            "reference": "Observation/Observation-220176",
            "display": "Weight"
          },
          {
            "reference": "Observation/Observation-220177",
            "display": "BMI"
          },
          {
            "reference": "Observation/Observation-220178",
            "display": "Temperature"
          },
          {
            "reference": "Observation/Observation-220179",
            "display": "Systolic Blood Pressure"
          },
          {
            "reference": "Observation/Observation-220180",
            "display": "Diastolic Blood Pressure"
          }
        ]
      },
      "request": {
        "method": "PUT",
        "url": "http://localhost:8080/cqf-ruler/baseDstu3/DiagnosticReport/DiagnosticReport-220174"
      }
    }
  ]
}