{
  "resourceType": "Bundle",
  "id": "Glen-Hicks-Jacobson-6511-Encounter-877",
  "type": "transaction",
  "entry": [
    {
      "fullUrl": "http://localhost:8080/cqf-ruler/baseDstu3/Encounter/Encounter-877",
      "resource": {
        "resourceType": "Encounter",
        "id": "Encounter-877",
        "meta": {
          "profile": [
            "http://hl7.org/fhir/us/hedis/StructureDefinition/hedis-encounter"
          ]
        },
        "status": "finished",
        "class": {
          "system": "http://hl7.org/fhir/encounter-class",
          "code": "outpatient",
          "display": "Outpatient"
        },
        "type": [
          {
            "coding": [
              {
                "system": "http://snomed.info/sct",
                "code": "170258001",
                "display": "Wellness Visit"
              }
            ]
          }
        ],
        "subject": {
          "reference": "Patient/Patient-6511",
          "display": "Glen Hicks Jacobson"
        },
        "participant": [
          {
            "period": {
              "start": "1997-01-24T00:00:00-05:00",
              "end": "1997-01-24T00:00:00-05:00"
            },
            "individual": {
              "reference": "Practitioner/Practitioner-2528",
              "display": "Tanya Sally Wheeler MD"
            }
          }
        ],
        "period": {
          "start": "1997-01-24T00:00:00-05:00",
          "end": "1997-01-24T00:00:00-05:00"
        },
        "location": [
          {
            "location": {
              "reference": "Location/Location-1101",
              "display": "McKinley Health Center"
            }
          }
        ],
        "serviceProvider": {
          "reference": "Organization/Organization-1101",
          "display": "McKinley Health Center"
        }
      },
      "request": {
        "method": "PUT",
        "url": "http://localhost:8080/cqf-ruler/baseDstu3/Encounter/Encounter-877"
      }
    },
    {
      "fullUrl": "http://localhost:8080/cqf-ruler/baseDstu3/Immunization/Immunization-156995",
      "resource": {
        "resourceType": "Immunization",
        "id": "Immunization-156995",
        "status": "completed",
        "notGiven": false,
        "vaccineCode": {
          "coding": [
            {
              "system": "http://hl7.org/fhir/sid/cvx",
              "code": "140",
              "display": "Influenza, seasonal, injectable, preservative free"
            }
          ]
        },
        "patient": {
          "reference": "Patient/Patient-6511",
          "display": "Glen Hicks Jacobson"
        },
        "date": "1997-01-24T00:00:00-05:00",
        "primarySource": true,
        "location": {
          "reference": "Location/Location-1101",
          "display": "McKinley Health Center"
        },
        "practitioner": [
          {
            "actor": {
              "reference": "Practitioner/Practitioner-2528",
              "display": "Tanya Sally Wheeler MD"
            }
          }
        ]
      },
      "request": {
        "method": "PUT",
        "url": "http://localhost:8080/cqf-ruler/baseDstu3/Immunization/Immunization-156995"
      }
    },
    {
      "fullUrl": "http://localhost:8080/cqf-ruler/baseDstu3/Observation/Observation-177959",
      "resource": {
        "resourceType": "Observation",
        "id": "Observation-177959",
        "meta": {
          "profile": [
            "http://hl7.org/fhir/us/hedis/StructureDefinition/hedis-observation"
          ]
        },
        "status": "final",
        "code": {
          "coding": [
            {
              "system": "http://loinc.org",
              "code": "8480-6",
              "display": "Systolic blood pressure"
            }
          ]
        },
        "subject": {
          "reference": "Patient/Patient-6511",
          "display": "Glen Hicks Jacobson"
        },
        "context": {
          "reference": "Encounter/Encounter-877",
          "display": "Wellness Visit"
        },
        "effectiveDateTime": "1997-01-24T00:00:00-05:00",
        "performer": [
          {
            "reference": "Practitioner/Practitioner-2528",
            "display": "Tanya Sally Wheeler MD"
          }
        ],
        "valueQuantity": {
          "value": 138.12968325688342,
          "unit": "mmHg"
        }
      },
      "request": {
        "method": "PUT",
        "url": "http://localhost:8080/cqf-ruler/baseDstu3/Observation/Observation-177959"
      }
    },
    {
      "fullUrl": "http://localhost:8080/cqf-ruler/baseDstu3/Observation/Observation-177960",
      "resource": {
        "resourceType": "Observation",
        "id": "Observation-177960",
        "meta": {
          "profile": [
            "http://hl7.org/fhir/us/hedis/StructureDefinition/hedis-observation"
          ]
        },
        "status": "final",
        "code": {
          "coding": [
            {
              "system": "http://loinc.org",
              "code": "8462-4",
              "display": "Diastolic blood pressure"
            }
          ]
        },
        "subject": {
          "reference": "Patient/Patient-6511",
          "display": "Glen Hicks Jacobson"
        },
        "context": {
          "reference": "Encounter/Encounter-877",
          "display": "Wellness Visit"
        },
        "effectiveDateTime": "1997-01-24T00:00:00-05:00",
        "performer": [
          {
            "reference": "Practitioner/Practitioner-2528",
            "display": "Tanya Sally Wheeler MD"
          }
        ],
        "valueQuantity": {
          "value": 92.63602469696639,
          "unit": "mmHg"
        }
      },
      "request": {
        "method": "PUT",
        "url": "http://localhost:8080/cqf-ruler/baseDstu3/Observation/Observation-177960"
      }
    },
    {
      "fullUrl": "http://localhost:8080/cqf-ruler/baseDstu3/Condition/Condition-177961",
      "resource": {
        "resourceType": "Condition",
        "id": "Condition-177961",
        "meta": {
          "profile": [
            "http://hl7.org/fhir/us/hedis/StructureDefinition/hedis-condition"
          ]
        },
        "clinicalStatus": "active",
        "verificationStatus": "confirmed",
        "code": {
          "coding": [
            {
              "system": "TBD",
              "code": "TBD",
              "display": "TBD"
            }
          ]
        },
        "subject": {
          "reference": "Patient/Patient-6511",
          "display": "Glen Hicks Jacobson"
        },
        "context": {
          "reference": "Encounter/Encounter-877",
          "display": "Wellness Visit"
        },
        "onsetDateTime": "1997-01-24T00:00:00-05:00",
        "assertedDate": "1997-01-24T00:00:00-05:00",
        "asserter": {
          "reference": "Practitioner/Practitioner-2528",
          "display": "Tanya Sally Wheeler MD"
        }
      },
      "request": {
        "method": "PUT",
        "url": "http://localhost:8080/cqf-ruler/baseDstu3/Condition/Condition-177961"
      }
    },
    {
      "fullUrl": "http://localhost:8080/cqf-ruler/baseDstu3/Observation/Observation-177962",
      "resource": {
        "resourceType": "Observation",
        "id": "Observation-177962",
        "meta": {
          "profile": [
            "http://hl7.org/fhir/us/hedis/StructureDefinition/hedis-observation"
          ]
        },
        "status": "final",
        "code": {
          "coding": [
            {
              "system": "http://loinc.org",
              "code": "8302-2",
              "display": "Body Height"
            }
          ]
        },
        "subject": {
          "reference": "Patient/Patient-6511",
          "display": "Glen Hicks Jacobson"
        },
        "context": {
          "reference": "Encounter/Encounter-877",
          "display": "Wellness Visit"
        },
        "effectiveDateTime": "1997-01-24T00:00:00-05:00",
        "performer": [
          {
            "reference": "Practitioner/Practitioner-2528",
            "display": "Tanya Sally Wheeler MD"
          }
        ],
        "valueQuantity": {
          "value": 126.2,
          "unit": "cm"
        }
      },
      "request": {
        "method": "PUT",
        "url": "http://localhost:8080/cqf-ruler/baseDstu3/Observation/Observation-177962"
      }
    },
    {
      "fullUrl": "http://localhost:8080/cqf-ruler/baseDstu3/Observation/Observation-177963",
      "resource": {
        "resourceType": "Observation",
        "id": "Observation-177963",
        "meta": {
          "profile": [
            "http://hl7.org/fhir/us/hedis/StructureDefinition/hedis-observation"
          ]
        },
        "status": "final",
        "code": {
          "coding": [
            {
              "system": "http://loinc.org",
              "code": "29463-7",
              "display": "Body Weight"
            }
          ]
        },
        "subject": {
          "reference": "Patient/Patient-6511",
          "display": "Glen Hicks Jacobson"
        },
        "context": {
          "reference": "Encounter/Encounter-877",
          "display": "Wellness Visit"
        },
        "effectiveDateTime": "1997-01-24T00:00:00-05:00",
        "performer": [
          {
            "reference": "Practitioner/Practitioner-2528",
            "display": "Tanya Sally Wheeler MD"
          }
        ],
        "valueQuantity": {
          "value": 22.774003240689503,
          "unit": "kg"
        }
      },
      "request": {
        "method": "PUT",
        "url": "http://localhost:8080/cqf-ruler/baseDstu3/Observation/Observation-177963"
      }
    },
    {
      "fullUrl": "http://localhost:8080/cqf-ruler/baseDstu3/Observation/Observation-177964",
      "resource": {
        "resourceType": "Observation",
        "id": "Observation-177964",
        "meta": {
          "profile": [
            "http://hl7.org/fhir/us/hedis/StructureDefinition/hedis-observation"
          ]
        },
        "status": "final",
        "code": {
          "coding": [
            {
              "system": "http://loinc.org",
              "code": "39156-5",
              "display": "Body Mass Index"
            }
          ]
        },
        "subject": {
          "reference": "Patient/Patient-6511",
          "display": "Glen Hicks Jacobson"
        },
        "context": {
          "reference": "Encounter/Encounter-877",
          "display": "Wellness Visit"
        },
        "effectiveDateTime": "1997-01-24T00:00:00-05:00",
        "performer": [
          {
            "reference": "Practitioner/Practitioner-2528",
            "display": "Tanya Sally Wheeler MD"
          }
        ],
        "valueQuantity": {
          "value": 14.299493948860826,
          "unit": "kg/m2"
        }
      },
      "request": {
        "method": "PUT",
        "url": "http://localhost:8080/cqf-ruler/baseDstu3/Observation/Observation-177964"
      }
    },
    {
      "fullUrl": "http://localhost:8080/cqf-ruler/baseDstu3/Observation/Observation-177967",
      "resource": {
        "resourceType": "Observation",
        "id": "Observation-177967",
        "meta": {
          "profile": [
            "http://hl7.org/fhir/us/hedis/StructureDefinition/hedis-observation"
          ]
        },
        "status": "final",
        "code": {
          "coding": [
            {
              "system": "http://loinc.org",
              "code": "55284-4",
              "display": "Blood Pressure"
            }
          ]
        },
        "subject": {
          "reference": "Patient/Patient-6511",
          "display": "Glen Hicks Jacobson"
        },
        "context": {
          "reference": "Encounter/Encounter-877",
          "display": "Wellness Visit"
        },
        "effectiveDateTime": "1997-01-24T00:00:00-05:00",
        "valueQuantity": {
          "value": 92.63602469696639,
          "unit": "mmHg"
        },
        "component": [
          {
            "code": {
              "coding": [
                {
                  "system": "http://loinc.org",
                  "code": "8480-6",
                  "display": "Systolic Blood Pressure"
                }
              ]
            }
          },
          {
            "code": {
              "coding": [
                {
                  "system": "http://loinc.org",
                  "code": "8462-4",
                  "display": "Diastolic Blood Pressure"
                }
              ]
            }
          }
        ]
      },
      "request": {
        "method": "PUT",
        "url": "http://localhost:8080/cqf-ruler/baseDstu3/Observation/Observation-177967"
      }
    },
    {
      "fullUrl": "http://localhost:8080/cqf-ruler/baseDstu3/Observation/Observation-177969",
      "resource": {
        "resourceType": "Observation",
        "id": "Observation-177969",
        "status": "final",
        "code": {
          "coding": [
            {
              "system": "http://loinc.org",
              "code": "8302-2",
              "display": "Height"
            }
          ]
        },
        "subject": {
          "reference": "Patient/Patient-6511",
          "display": "Glen Hicks Jacobson"
        },
        "context": {
          "reference": "Encounter/Encounter-877",
          "display": "Wellness Visit"
        },
        "effectiveDateTime": "1997-01-24T00:00:00-05:00",
        "performer": [
          {
            "reference": "Practitioner/Practitioner-2528",
            "display": "Tanya Sally Wheeler MD"
          }
        ],
        "valueQuantity": {
          "value": 126.2,
          "unit": "cm"
        }
      },
      "request": {
        "method": "PUT",
        "url": "http://localhost:8080/cqf-ruler/baseDstu3/Observation/Observation-177969"
      }
    },
    {
      "fullUrl": "http://localhost:8080/cqf-ruler/baseDstu3/Observation/Observation-177970",
      "resource": {
        "resourceType": "Observation",
        "id": "Observation-177970",
        "status": "final",
        "code": {
          "coding": [
            {
              "system": "http://loinc.org",
              "code": "29463-7",
              "display": "Weight"
            }
          ]
        },
        "subject": {
          "reference": "Patient/Patient-6511",
          "display": "Glen Hicks Jacobson"
        },
        "context": {
          "reference": "Encounter/Encounter-877",
          "display": "Wellness Visit"
        },
        "effectiveDateTime": "1997-01-24T00:00:00-05:00",
        "performer": [
          {
            "reference": "Practitioner/Practitioner-2528",
            "display": "Tanya Sally Wheeler MD"
          }
        ],
        "valueQuantity": {
          "value": 22.774003240689503,
          "unit": "kg"
        }
      },
      "request": {
        "method": "PUT",
        "url": "http://localhost:8080/cqf-ruler/baseDstu3/Observation/Observation-177970"
      }
    },
    {
      "fullUrl": "http://localhost:8080/cqf-ruler/baseDstu3/Observation/Observation-177971",
      "resource": {
        "resourceType": "Observation",
        "id": "Observation-177971",
        "status": "final",
        "code": {
          "coding": [
            {
              "system": "http://loinc.org",
              "code": "39156-5",
              "display": "BMI"
            }
          ]
        },
        "subject": {
          "reference": "Patient/Patient-6511",
          "display": "Glen Hicks Jacobson"
        },
        "context": {
          "reference": "Encounter/Encounter-877",
          "display": "Wellness Visit"
        },
        "effectiveDateTime": "1997-01-24T00:00:00-05:00",
        "performer": [
          {
            "reference": "Practitioner/Practitioner-2528",
            "display": "Tanya Sally Wheeler MD"
          }
        ],
        "valueQuantity": {
          "value": 14.299493948860826,
          "unit": "kg/m2"
        }
      },
      "request": {
        "method": "PUT",
        "url": "http://localhost:8080/cqf-ruler/baseDstu3/Observation/Observation-177971"
      }
    },
    {
      "fullUrl": "http://localhost:8080/cqf-ruler/baseDstu3/Observation/Observation-177972",
      "resource": {
        "resourceType": "Observation",
        "id": "Observation-177972",
        "status": "final",
        "code": {
          "coding": [
            {
              "system": "http://loinc.org",
              "code": "8310-5",
              "display": "Temperature"
            }
          ]
        },
        "subject": {
          "reference": "Patient/Patient-6511",
          "display": "Glen Hicks Jacobson"
        },
        "context": {
          "reference": "Encounter/Encounter-877",
          "display": "Wellness Visit"
        },
        "effectiveDateTime": "1997-01-24T00:00:00-05:00",
        "performer": [
          {
            "reference": "Practitioner/Practitioner-2528",
            "display": "Tanya Sally Wheeler MD"
          }
        ],
        "valueQuantity": {
          "value": 37.0,
          "unit": "C"
        }
      },
      "request": {
        "method": "PUT",
        "url": "http://localhost:8080/cqf-ruler/baseDstu3/Observation/Observation-177972"
      }
    },
    {
      "fullUrl": "http://localhost:8080/cqf-ruler/baseDstu3/Observation/Observation-177973",
      "resource": {
        "resourceType": "Observation",
        "id": "Observation-177973",
        "status": "final",
        "code": {
          "coding": [
            {
              "system": "http://loinc.org",
              "code": "8459-0",
              "display": "Systolic Blood Pressure"
            }
          ]
        },
        "subject": {
          "reference": "Patient/Patient-6511",
          "display": "Glen Hicks Jacobson"
        },
        "context": {
          "reference": "Encounter/Encounter-877",
          "display": "Wellness Visit"
        },
        "effectiveDateTime": "1997-01-24T00:00:00-05:00",
        "performer": [
          {
            "reference": "Practitioner/Practitioner-2528",
            "display": "Tanya Sally Wheeler MD"
          }
        ],
        "valueQuantity": {
          "value": 138.12968325688342,
          "unit": "mmHg"
        }
      },
      "request": {
        "method": "PUT",
        "url": "http://localhost:8080/cqf-ruler/baseDstu3/Observation/Observation-177973"
      }
    },
    {
      "fullUrl": "http://localhost:8080/cqf-ruler/baseDstu3/Observation/Observation-177974",
      "resource": {
        "resourceType": "Observation",
        "id": "Observation-177974",
        "status": "final",
        "code": {
          "coding": [
            {
              "system": "http://loinc.org",
              "code": "8453-3",
              "display": "Diastolic Blood Pressure"
            }
          ]
        },
        "subject": {
          "reference": "Patient/Patient-6511",
          "display": "Glen Hicks Jacobson"
        },
        "context": {
          "reference": "Encounter/Encounter-877",
          "display": "Wellness Visit"
        },
        "effectiveDateTime": "1997-01-24T00:00:00-05:00",
        "performer": [
          {
            "reference": "Practitioner/Practitioner-2528",
            "display": "Tanya Sally Wheeler MD"
          }
        ],
        "valueQuantity": {
          "value": 92.63602469696639,
          "unit": "mmHg"
        }
      },
      "request": {
        "method": "PUT",
        "url": "http://localhost:8080/cqf-ruler/baseDstu3/Observation/Observation-177974"
      }
    },
    {
      "fullUrl": "http://localhost:8080/cqf-ruler/baseDstu3/DiagnosticReport/DiagnosticReport-177968",
      "resource": {
        "resourceType": "DiagnosticReport",
        "id": "DiagnosticReport-177968",
        "meta": {
          "profile": [
            "http://hl7.org/fhir/us/hedis/StructureDefinition/hedis-diagnosticreport"
          ]
        },
        "status": "final",
        "category": {
          "coding": [
            {
              "system": "http://hl7.org/fhir/ValueSet/diagnostic-service-sections",
              "code": "LAB",
              "display": "Laboratory"
            }
          ]
        },
        "code": {
          "coding": [
            {
              "system": "http://loinc.org",
              "code": "8716-3",
              "display": "Vital Signs Panel"
            }
          ]
        },
        "subject": {
          "reference": "Patient/Patient-6511",
          "display": "Glen Hicks Jacobson"
        },
        "context": {
          "reference": "Encounter/Encounter-877",
          "display": "Wellness Visit"
        },
        "effectivePeriod": {
          "start": "1997-01-24T00:00:00-05:00",
          "end": "1997-01-24T00:00:00-05:00"
        },
        "issued": "1997-01-24T00:00:00.000-05:00",
        "result": [
          {
            "reference": "Observation/Observation-177969",
            "display": "Height"
          },
          {
            "reference": "Observation/Observation-177970",
            "display": "Weight"
          },
          {
            "reference": "Observation/Observation-177971",
            "display": "BMI"
          },
          {
            "reference": "Observation/Observation-177972",
            "display": "Temperature"
          },
          {
            "reference": "Observation/Observation-177973",
            "display": "Systolic Blood Pressure"
          },
          {
            "reference": "Observation/Observation-177974",
            "display": "Diastolic Blood Pressure"
          }
        ]
      },
      "request": {
        "method": "PUT",
        "url": "http://localhost:8080/cqf-ruler/baseDstu3/DiagnosticReport/DiagnosticReport-177968"
      }
    }
  ]
}