{
  "resourceType": "Bundle",
  "id": "Alex-Ramirez-Gonzales-1132-Encounter-1169",
  "type": "transaction",
  "entry": [
    {
      "fullUrl": "http://localhost:8080/cqf-ruler/baseDstu3/Encounter/Encounter-1169",
      "resource": {
        "resourceType": "Encounter",
        "id": "Encounter-1169",
        "status": "finished",
        "class": {
          "system": "http://hl7.org/fhir/encounter-class",
          "code": "outpatient",
          "display": "Inpatient"
        },
        "subject": {
          "reference": "Patient/Patient-1132",
          "display": "Alex Ramirez Gonzales"
        },
        "participant": [
          {
            "period": {
              "start": "2003-01-10T00:00:00-05:00",
              "end": "2003-01-10T00:00:00-05:00"
            },
            "individual": {
              "reference": "Practitioner/Practitioner-2528",
              "display": "Tanya Sally Wheeler MD"
            }
          }
        ],
        "period": {
          "start": "2003-01-10T00:00:00-05:00",
          "end": "2003-01-10T00:00:00-05:00"
        },
        "location": [
          {
            "location": {
              "reference": "Location/Location-1101",
              "display": "McKinley Health Center"
            }
          }
        ],
        "serviceProvider": {
          "reference": "Organization/Organization-1101",
          "display": "McKinley Health Center"
        }
      },
      "request": {
        "method": "PUT",
        "url": "http://localhost:8080/cqf-ruler/baseDstu3/Encounter/Encounter-1169"
      }
    },
    {
      "fullUrl": "http://localhost:8080/cqf-ruler/baseDstu3/Immunization/Immunization-240194",
      "resource": {
        "resourceType": "Immunization",
        "id": "Immunization-240194",
        "status": "completed",
        "notGiven": false,
        "vaccineCode": {
          "coding": [
            {
              "system": "http://hl7.org/fhir/sid/cvx",
              "code": "140",
              "display": "Influenza, seasonal, injectable, preservative free"
            }
          ]
        },
        "patient": {
          "reference": "Patient/Patient-1132",
          "display": "Alex Ramirez Gonzales"
        },
        "date": "2003-01-10T00:00:00-05:00",
        "primarySource": true,
        "location": {
          "reference": "Location/Location-1101",
          "display": "McKinley Health Center"
        },
        "practitioner": [
          {
            "actor": {
              "reference": "Practitioner/Practitioner-2528",
              "display": "Tanya Sally Wheeler MD"
            }
          }
        ]
      },
      "request": {
        "method": "PUT",
        "url": "http://localhost:8080/cqf-ruler/baseDstu3/Immunization/Immunization-240194"
      }
    },
    {
      "fullUrl": "http://localhost:8080/cqf-ruler/baseDstu3/Observation/Observation-306072",
      "resource": {
        "resourceType": "Observation",
        "id": "Observation-306072",
        "status": "final",
        "code": {
          "coding": [
            {
              "system": "http://loinc.org",
              "code": "8480-6",
              "display": "Systolic blood pressure"
            }
          ]
        },
        "subject": {
          "reference": "Patient/Patient-1132",
          "display": "Alex Ramirez Gonzales"
        },
        "context": {
          "reference": "Encounter/Encounter-1169",
          "display": "Wellness Visit"
        },
        "effectivePeriod": {
          "start": "2003-01-10T00:00:00-05:00",
          "end": "2003-01-10T00:00:00-05:00"
        },
        "performer": [
          {
            "reference": "Practitioner/Practitioner-2528",
            "display": "Tanya Sally Wheeler MD"
          }
        ],
        "valueQuantity": {
          "value": 151.32116010588538,
          "unit": "mmHg"
        }
      },
      "request": {
        "method": "PUT",
        "url": "http://localhost:8080/cqf-ruler/baseDstu3/Observation/Observation-306072"
      }
    },
    {
      "fullUrl": "http://localhost:8080/cqf-ruler/baseDstu3/Observation/Observation-306073",
      "resource": {
        "resourceType": "Observation",
        "id": "Observation-306073",
        "status": "final",
        "code": {
          "coding": [
            {
              "system": "http://loinc.org",
              "code": "8462-4",
              "display": "Diastolic blood pressure"
            }
          ]
        },
        "subject": {
          "reference": "Patient/Patient-1132",
          "display": "Alex Ramirez Gonzales"
        },
        "context": {
          "reference": "Encounter/Encounter-1169",
          "display": "Wellness Visit"
        },
        "effectivePeriod": {
          "start": "2003-01-10T00:00:00-05:00",
          "end": "2003-01-10T00:00:00-05:00"
        },
        "performer": [
          {
            "reference": "Practitioner/Practitioner-2528",
            "display": "Tanya Sally Wheeler MD"
          }
        ],
        "valueQuantity": {
          "value": 102.60953527264128,
          "unit": "mmHg"
        }
      },
      "request": {
        "method": "PUT",
        "url": "http://localhost:8080/cqf-ruler/baseDstu3/Observation/Observation-306073"
      }
    },
    {
      "fullUrl": "http://localhost:8080/cqf-ruler/baseDstu3/Condition/Condition-306074",
      "resource": {
        "resourceType": "Condition",
        "id": "Condition-306074",
        "clinicalStatus": "active",
        "verificationStatus": "confirmed",
        "code": {
          "coding": [
            {
              "system": "http://snomed.info/sct",
              "code": "371125006",
              "display": "Labile essential hypertension"
            }
          ]
        },
        "subject": {
          "reference": "Patient/Patient-1132",
          "display": "Alex Ramirez Gonzales"
        },
        "context": {
          "reference": "Encounter/Encounter-1169",
          "display": "Wellness Visit"
        },
        "onsetDateTime": "2003-01-10T00:00:00-05:00",
        "assertedDate": "2003-01-10T00:00:00-05:00",
        "asserter": {
          "reference": "Practitioner/Practitioner-2528",
          "display": "Tanya Sally Wheeler MD"
        }
      },
      "request": {
        "method": "PUT",
        "url": "http://localhost:8080/cqf-ruler/baseDstu3/Condition/Condition-306074"
      }
    },
    {
      "fullUrl": "http://localhost:8080/cqf-ruler/baseDstu3/Observation/Observation-306075",
      "resource": {
        "resourceType": "Observation",
        "id": "Observation-306075",
        "status": "final",
        "code": {
          "coding": [
            {
              "system": "http://loinc.org",
              "code": "8302-2",
              "display": "Body Height"
            }
          ]
        },
        "subject": {
          "reference": "Patient/Patient-1132",
          "display": "Alex Ramirez Gonzales"
        },
        "context": {
          "reference": "Encounter/Encounter-1169",
          "display": "Wellness Visit"
        },
        "effectivePeriod": {
          "start": "2003-01-10T00:00:00-05:00",
          "end": "2003-01-10T00:00:00-05:00"
        },
        "performer": [
          {
            "reference": "Practitioner/Practitioner-2528",
            "display": "Tanya Sally Wheeler MD"
          }
        ],
        "valueQuantity": {
          "value": 181.7,
          "unit": "cm"
        }
      },
      "request": {
        "method": "PUT",
        "url": "http://localhost:8080/cqf-ruler/baseDstu3/Observation/Observation-306075"
      }
    },
    {
      "fullUrl": "http://localhost:8080/cqf-ruler/baseDstu3/Observation/Observation-306076",
      "resource": {
        "resourceType": "Observation",
        "id": "Observation-306076",
        "status": "final",
        "code": {
          "coding": [
            {
              "system": "http://loinc.org",
              "code": "29463-7",
              "display": "Body Weight"
            }
          ]
        },
        "subject": {
          "reference": "Patient/Patient-1132",
          "display": "Alex Ramirez Gonzales"
        },
        "context": {
          "reference": "Encounter/Encounter-1169",
          "display": "Wellness Visit"
        },
        "effectivePeriod": {
          "start": "2003-01-10T00:00:00-05:00",
          "end": "2003-01-10T00:00:00-05:00"
        },
        "performer": [
          {
            "reference": "Practitioner/Practitioner-2528",
            "display": "Tanya Sally Wheeler MD"
          }
        ],
        "valueQuantity": {
          "value": 106.50490183056002,
          "unit": "kg"
        }
      },
      "request": {
        "method": "PUT",
        "url": "http://localhost:8080/cqf-ruler/baseDstu3/Observation/Observation-306076"
      }
    },
    {
      "fullUrl": "http://localhost:8080/cqf-ruler/baseDstu3/Observation/Observation-306077",
      "resource": {
        "resourceType": "Observation",
        "id": "Observation-306077",
        "status": "final",
        "code": {
          "coding": [
            {
              "system": "http://loinc.org",
              "code": "39156-5",
              "display": "Body Mass Index"
            }
          ]
        },
        "subject": {
          "reference": "Patient/Patient-1132",
          "display": "Alex Ramirez Gonzales"
        },
        "context": {
          "reference": "Encounter/Encounter-1169",
          "display": "Wellness Visit"
        },
        "effectivePeriod": {
          "start": "2003-01-10T00:00:00-05:00",
          "end": "2003-01-10T00:00:00-05:00"
        },
        "performer": [
          {
            "reference": "Practitioner/Practitioner-2528",
            "display": "Tanya Sally Wheeler MD"
          }
        ],
        "valueQuantity": {
          "value": 32.25965672778556,
          "unit": "kg/m2"
        }
      },
      "request": {
        "method": "PUT",
        "url": "http://localhost:8080/cqf-ruler/baseDstu3/Observation/Observation-306077"
      }
    },
    {
      "fullUrl": "http://localhost:8080/cqf-ruler/baseDstu3/Observation/Observation-306080",
      "resource": {
        "resourceType": "Observation",
        "id": "Observation-306080",
        "status": "final",
        "category": [
          {
            "coding": [
              {
                "system": "http://hl7.org/fhir/observation-category",
                "code": "vital-signs",
                "display": "vital-signs"
              }
            ]
          }
        ],
        "code": {
          "coding": [
            {
              "system": "http://loinc.org",
              "code": "55284-4",
              "display": "Blood Pressure"
            }
          ]
        },
        "subject": {
          "reference": "Patient/Patient-1132",
          "display": "Alex Ramirez Gonzales"
        },
        "context": {
          "reference": "Encounter/Encounter-1169",
          "display": "Wellness Visit"
        },
        "effectivePeriod": {
          "start": "2003-01-10T00:00:00-05:00",
          "end": "2003-01-10T00:00:00-05:00"
        },
        "valueQuantity": {
          "value": 102.60953527264128,
          "unit": "mmHg"
        },
        "component": [
          {
            "code": {
              "coding": [
                {
                  "system": "http://loinc.org",
                  "code": "8480-6",
                  "display": "Systolic Blood Pressure"
                }
              ]
            }
          },
          {
            "code": {
              "coding": [
                {
                  "system": "http://loinc.org",
                  "code": "8462-4",
                  "display": "Diastolic Blood Pressure"
                }
              ]
            }
          }
        ]
      },
      "request": {
        "method": "PUT",
        "url": "http://localhost:8080/cqf-ruler/baseDstu3/Observation/Observation-306080"
      }
    },
    {
      "fullUrl": "http://localhost:8080/cqf-ruler/baseDstu3/Observation/Observation-306081",
      "resource": {
        "resourceType": "Observation",
        "id": "Observation-306081",
        "status": "final",
        "code": {
          "coding": [
            {
              "system": "http://loinc.org",
              "code": "4548-4",
              "display": "Hemoglobin A1c/Hemoglobin.total in Blood"
            }
          ]
        },
        "subject": {
          "reference": "Patient/Patient-1132",
          "display": "Alex Ramirez Gonzales"
        },
        "context": {
          "reference": "Encounter/Encounter-1169",
          "display": "Wellness Visit"
        },
        "effectivePeriod": {
          "start": "2003-01-10T00:00:00-05:00",
          "end": "2003-01-10T00:00:00-05:00"
        },
        "performer": [
          {
            "reference": "Practitioner/Practitioner-2528",
            "display": "Tanya Sally Wheeler MD"
          }
        ],
        "valueQuantity": {
          "value": 5.412978129472272,
          "unit": "%"
        }
      },
      "request": {
        "method": "PUT",
        "url": "http://localhost:8080/cqf-ruler/baseDstu3/Observation/Observation-306081"
      }
    },
    {
      "fullUrl": "http://localhost:8080/cqf-ruler/baseDstu3/Observation/Observation-306082",
      "resource": {
        "resourceType": "Observation",
        "id": "Observation-306082",
        "status": "final",
        "code": {
          "coding": [
            {
              "system": "http://loinc.org",
              "code": "2339-0",
              "display": "Glucose"
            }
          ]
        },
        "subject": {
          "reference": "Patient/Patient-1132",
          "display": "Alex Ramirez Gonzales"
        },
        "context": {
          "reference": "Encounter/Encounter-1169",
          "display": "Wellness Visit"
        },
        "effectivePeriod": {
          "start": "2003-01-10T00:00:00-05:00",
          "end": "2003-01-10T00:00:00-05:00"
        },
        "performer": [
          {
            "reference": "Practitioner/Practitioner-2528",
            "display": "Tanya Sally Wheeler MD"
          }
        ],
        "valueQuantity": {
          "value": 80.830830125801,
          "unit": "mg/dL"
        }
      },
      "request": {
        "method": "PUT",
        "url": "http://localhost:8080/cqf-ruler/baseDstu3/Observation/Observation-306082"
      }
    },
    {
      "fullUrl": "http://localhost:8080/cqf-ruler/baseDstu3/Observation/Observation-306083",
      "resource": {
        "resourceType": "Observation",
        "id": "Observation-306083",
        "status": "final",
        "code": {
          "coding": [
            {
              "system": "http://loinc.org",
              "code": "6299-2",
              "display": "Urea Nitrogen"
            }
          ]
        },
        "subject": {
          "reference": "Patient/Patient-1132",
          "display": "Alex Ramirez Gonzales"
        },
        "context": {
          "reference": "Encounter/Encounter-1169",
          "display": "Wellness Visit"
        },
        "effectivePeriod": {
          "start": "2003-01-10T00:00:00-05:00",
          "end": "2003-01-10T00:00:00-05:00"
        },
        "performer": [
          {
            "reference": "Practitioner/Practitioner-2528",
            "display": "Tanya Sally Wheeler MD"
          }
        ],
        "valueQuantity": {
          "value": 9.822019334843194,
          "unit": "mg/dL"
        }
      },
      "request": {
        "method": "PUT",
        "url": "http://localhost:8080/cqf-ruler/baseDstu3/Observation/Observation-306083"
      }
    },
    {
      "fullUrl": "http://localhost:8080/cqf-ruler/baseDstu3/Observation/Observation-306084",
      "resource": {
        "resourceType": "Observation",
        "id": "Observation-306084",
        "status": "final",
        "code": {
          "coding": [
            {
              "system": "http://loinc.org",
              "code": "38483-4",
              "display": "Creatinine"
            }
          ]
        },
        "subject": {
          "reference": "Patient/Patient-1132",
          "display": "Alex Ramirez Gonzales"
        },
        "context": {
          "reference": "Encounter/Encounter-1169",
          "display": "Wellness Visit"
        },
        "effectivePeriod": {
          "start": "2003-01-10T00:00:00-05:00",
          "end": "2003-01-10T00:00:00-05:00"
        },
        "performer": [
          {
            "reference": "Practitioner/Practitioner-2528",
            "display": "Tanya Sally Wheeler MD"
          }
        ],
        "valueQuantity": {
          "value": 0.9163011456279765,
          "unit": "mg/dL"
        }
      },
      "request": {
        "method": "PUT",
        "url": "http://localhost:8080/cqf-ruler/baseDstu3/Observation/Observation-306084"
      }
    },
    {
      "fullUrl": "http://localhost:8080/cqf-ruler/baseDstu3/Observation/Observation-306085",
      "resource": {
        "resourceType": "Observation",
        "id": "Observation-306085",
        "status": "final",
        "code": {
          "coding": [
            {
              "system": "http://loinc.org",
              "code": "49765-1",
              "display": "Calcium"
            }
          ]
        },
        "subject": {
          "reference": "Patient/Patient-1132",
          "display": "Alex Ramirez Gonzales"
        },
        "context": {
          "reference": "Encounter/Encounter-1169",
          "display": "Wellness Visit"
        },
        "effectivePeriod": {
          "start": "2003-01-10T00:00:00-05:00",
          "end": "2003-01-10T00:00:00-05:00"
        },
        "performer": [
          {
            "reference": "Practitioner/Practitioner-2528",
            "display": "Tanya Sally Wheeler MD"
          }
        ],
        "valueQuantity": {
          "value": 1.5961057196790727,
          "unit": "mmol/L"
        }
      },
      "request": {
        "method": "PUT",
        "url": "http://localhost:8080/cqf-ruler/baseDstu3/Observation/Observation-306085"
      }
    },
    {
      "fullUrl": "http://localhost:8080/cqf-ruler/baseDstu3/Observation/Observation-306086",
      "resource": {
        "resourceType": "Observation",
        "id": "Observation-306086",
        "status": "final",
        "code": {
          "coding": [
            {
              "system": "http://loinc.org",
              "code": "2947-0",
              "display": "Sodium"
            }
          ]
        },
        "subject": {
          "reference": "Patient/Patient-1132",
          "display": "Alex Ramirez Gonzales"
        },
        "context": {
          "reference": "Encounter/Encounter-1169",
          "display": "Wellness Visit"
        },
        "effectivePeriod": {
          "start": "2003-01-10T00:00:00-05:00",
          "end": "2003-01-10T00:00:00-05:00"
        },
        "performer": [
          {
            "reference": "Practitioner/Practitioner-2528",
            "display": "Tanya Sally Wheeler MD"
          }
        ],
        "valueQuantity": {
          "value": 139.32530843614083,
          "unit": "mmol/L"
        }
      },
      "request": {
        "method": "PUT",
        "url": "http://localhost:8080/cqf-ruler/baseDstu3/Observation/Observation-306086"
      }
    },
    {
      "fullUrl": "http://localhost:8080/cqf-ruler/baseDstu3/Observation/Observation-306087",
      "resource": {
        "resourceType": "Observation",
        "id": "Observation-306087",
        "status": "final",
        "code": {
          "coding": [
            {
              "system": "http://loinc.org",
              "code": "6298-4",
              "display": "Potassium"
            }
          ]
        },
        "subject": {
          "reference": "Patient/Patient-1132",
          "display": "Alex Ramirez Gonzales"
        },
        "context": {
          "reference": "Encounter/Encounter-1169",
          "display": "Wellness Visit"
        },
        "effectivePeriod": {
          "start": "2003-01-10T00:00:00-05:00",
          "end": "2003-01-10T00:00:00-05:00"
        },
        "performer": [
          {
            "reference": "Practitioner/Practitioner-2528",
            "display": "Tanya Sally Wheeler MD"
          }
        ],
        "valueQuantity": {
          "value": 5.652760437430759,
          "unit": "mmol/L"
        }
      },
      "request": {
        "method": "PUT",
        "url": "http://localhost:8080/cqf-ruler/baseDstu3/Observation/Observation-306087"
      }
    },
    {
      "fullUrl": "http://localhost:8080/cqf-ruler/baseDstu3/Observation/Observation-306088",
      "resource": {
        "resourceType": "Observation",
        "id": "Observation-306088",
        "status": "final",
        "code": {
          "coding": [
            {
              "system": "http://loinc.org",
              "code": "2069-3",
              "display": "Chloride"
            }
          ]
        },
        "subject": {
          "reference": "Patient/Patient-1132",
          "display": "Alex Ramirez Gonzales"
        },
        "context": {
          "reference": "Encounter/Encounter-1169",
          "display": "Wellness Visit"
        },
        "effectivePeriod": {
          "start": "2003-01-10T00:00:00-05:00",
          "end": "2003-01-10T00:00:00-05:00"
        },
        "performer": [
          {
            "reference": "Practitioner/Practitioner-2528",
            "display": "Tanya Sally Wheeler MD"
          }
        ],
        "valueQuantity": {
          "value": 102.41696969920787,
          "unit": "mmol/L"
        }
      },
      "request": {
        "method": "PUT",
        "url": "http://localhost:8080/cqf-ruler/baseDstu3/Observation/Observation-306088"
      }
    },
    {
      "fullUrl": "http://localhost:8080/cqf-ruler/baseDstu3/Observation/Observation-306089",
      "resource": {
        "resourceType": "Observation",
        "id": "Observation-306089",
        "status": "final",
        "code": {
          "coding": [
            {
              "system": "http://loinc.org",
              "code": "20565-8",
              "display": "Carbon Dioxide"
            }
          ]
        },
        "subject": {
          "reference": "Patient/Patient-1132",
          "display": "Alex Ramirez Gonzales"
        },
        "context": {
          "reference": "Encounter/Encounter-1169",
          "display": "Wellness Visit"
        },
        "effectivePeriod": {
          "start": "2003-01-10T00:00:00-05:00",
          "end": "2003-01-10T00:00:00-05:00"
        },
        "performer": [
          {
            "reference": "Practitioner/Practitioner-2528",
            "display": "Tanya Sally Wheeler MD"
          }
        ],
        "valueQuantity": {
          "value": 27.936671398288304,
          "unit": "mmol/L"
        }
      },
      "request": {
        "method": "PUT",
        "url": "http://localhost:8080/cqf-ruler/baseDstu3/Observation/Observation-306089"
      }
    },
    {
      "fullUrl": "http://localhost:8080/cqf-ruler/baseDstu3/DiagnosticReport/DiagnosticReport-306090",
      "resource": {
        "resourceType": "DiagnosticReport",
        "id": "DiagnosticReport-306090",
        "status": "final",
        "code": {
          "coding": [
            {
              "system": "http://loinc.org",
              "code": "51990-0",
              "display": "Basic Metabolic Panel"
            }
          ]
        },
        "subject": {
          "reference": "Patient/Patient-1132",
          "display": "Alex Ramirez Gonzales"
        },
        "context": {
          "reference": "Encounter/Encounter-1169",
          "display": "Wellness Visit"
        },
        "effectivePeriod": {
          "start": "2003-01-10T00:00:00-05:00",
          "end": "2003-01-10T00:00:00-05:00"
        },
        "issued": "2003-01-10T00:00:00.000-05:00",
        "result": [
          {
            "reference": "Observation/Observation-306082",
            "display": "Record_Glucose"
          },
          {
            "reference": "Observation/Observation-306083",
            "display": "Record_UreaNitrogen"
          },
          {
            "reference": "Observation/Observation-306084",
            "display": "Record_Creatinine"
          },
          {
            "reference": "Observation/Observation-306085",
            "display": "Record_Calcium"
          },
          {
            "reference": "Observation/Observation-306086",
            "display": "Record_Sodium"
          },
          {
            "reference": "Observation/Observation-306087",
            "display": "Record_Potassium"
          },
          {
            "reference": "Observation/Observation-306088",
            "display": "Record_Chloride"
          },
          {
            "reference": "Observation/Observation-306089",
            "display": "Record_CO2"
          }
        ]
      },
      "request": {
        "method": "PUT",
        "url": "http://localhost:8080/cqf-ruler/baseDstu3/DiagnosticReport/DiagnosticReport-306090"
      }
    },
    {
      "fullUrl": "http://localhost:8080/cqf-ruler/baseDstu3/Observation/Observation-306091",
      "resource": {
        "resourceType": "Observation",
        "id": "Observation-306091",
        "status": "final",
        "code": {
          "coding": [
            {
              "system": "http://loinc.org",
              "code": "2093-3",
              "display": "Total Cholesterol"
            }
          ]
        },
        "subject": {
          "reference": "Patient/Patient-1132",
          "display": "Alex Ramirez Gonzales"
        },
        "context": {
          "reference": "Encounter/Encounter-1169",
          "display": "Wellness Visit"
        },
        "effectivePeriod": {
          "start": "2003-01-10T00:00:00-05:00",
          "end": "2003-01-10T00:00:00-05:00"
        },
        "performer": [
          {
            "reference": "Practitioner/Practitioner-2528",
            "display": "Tanya Sally Wheeler MD"
          }
        ],
        "valueQuantity": {
          "value": 117.72515910170685,
          "unit": "mg/dL"
        }
      },
      "request": {
        "method": "PUT",
        "url": "http://localhost:8080/cqf-ruler/baseDstu3/Observation/Observation-306091"
      }
    },
    {
      "fullUrl": "http://localhost:8080/cqf-ruler/baseDstu3/Observation/Observation-306092",
      "resource": {
        "resourceType": "Observation",
        "id": "Observation-306092",
        "status": "final",
        "code": {
          "coding": [
            {
              "system": "http://loinc.org",
              "code": "2571-8",
              "display": "Triglycerides"
            }
          ]
        },
        "subject": {
          "reference": "Patient/Patient-1132",
          "display": "Alex Ramirez Gonzales"
        },
        "context": {
          "reference": "Encounter/Encounter-1169",
          "display": "Wellness Visit"
        },
        "effectivePeriod": {
          "start": "2003-01-10T00:00:00-05:00",
          "end": "2003-01-10T00:00:00-05:00"
        },
        "performer": [
          {
            "reference": "Practitioner/Practitioner-2528",
            "display": "Tanya Sally Wheeler MD"
          }
        ],
        "valueQuantity": {
          "value": 60.37404395665009,
          "unit": "mg/dL"
        }
      },
      "request": {
        "method": "PUT",
        "url": "http://localhost:8080/cqf-ruler/baseDstu3/Observation/Observation-306092"
      }
    },
    {
      "fullUrl": "http://localhost:8080/cqf-ruler/baseDstu3/Observation/Observation-306093",
      "resource": {
        "resourceType": "Observation",
        "id": "Observation-306093",
        "status": "final",
        "code": {
          "coding": [
            {
              "system": "http://loinc.org",
              "code": "18262-6",
              "display": "Low Density Lipoprotein Cholesterol"
            }
          ]
        },
        "subject": {
          "reference": "Patient/Patient-1132",
          "display": "Alex Ramirez Gonzales"
        },
        "context": {
          "reference": "Encounter/Encounter-1169",
          "display": "Wellness Visit"
        },
        "effectivePeriod": {
          "start": "2003-01-10T00:00:00-05:00",
          "end": "2003-01-10T00:00:00-05:00"
        },
        "performer": [
          {
            "reference": "Practitioner/Practitioner-2528",
            "display": "Tanya Sally Wheeler MD"
          }
        ],
        "valueQuantity": {
          "value": 64.37651575154624,
          "unit": "mg/dL"
        }
      },
      "request": {
        "method": "PUT",
        "url": "http://localhost:8080/cqf-ruler/baseDstu3/Observation/Observation-306093"
      }
    },
    {
      "fullUrl": "http://localhost:8080/cqf-ruler/baseDstu3/Observation/Observation-306094",
      "resource": {
        "resourceType": "Observation",
        "id": "Observation-306094",
        "status": "final",
        "code": {
          "coding": [
            {
              "system": "http://loinc.org",
              "code": "2085-9",
              "display": "High Density Lipoprotein Cholesterol"
            }
          ]
        },
        "subject": {
          "reference": "Patient/Patient-1132",
          "display": "Alex Ramirez Gonzales"
        },
        "context": {
          "reference": "Encounter/Encounter-1169",
          "display": "Wellness Visit"
        },
        "effectivePeriod": {
          "start": "2003-01-10T00:00:00-05:00",
          "end": "2003-01-10T00:00:00-05:00"
        },
        "performer": [
          {
            "reference": "Practitioner/Practitioner-2528",
            "display": "Tanya Sally Wheeler MD"
          }
        ],
        "valueQuantity": {
          "value": 41.27383455883061,
          "unit": "mg/dL"
        }
      },
      "request": {
        "method": "PUT",
        "url": "http://localhost:8080/cqf-ruler/baseDstu3/Observation/Observation-306094"
      }
    },
    {
      "fullUrl": "http://localhost:8080/cqf-ruler/baseDstu3/DiagnosticReport/DiagnosticReport-306095",
      "resource": {
        "resourceType": "DiagnosticReport",
        "id": "DiagnosticReport-306095",
        "status": "final",
        "code": {
          "coding": [
            {
              "system": "http://loinc.org",
              "code": "57698-3",
              "display": "Lipid Panel"
            }
          ]
        },
        "subject": {
          "reference": "Patient/Patient-1132",
          "display": "Alex Ramirez Gonzales"
        },
        "context": {
          "reference": "Encounter/Encounter-1169",
          "display": "Wellness Visit"
        },
        "effectivePeriod": {
          "start": "2003-01-10T00:00:00-05:00",
          "end": "2003-01-10T00:00:00-05:00"
        },
        "issued": "2003-01-10T00:00:00.000-05:00",
        "result": [
          {
            "reference": "Observation/Observation-306091",
            "display": "Record_Cholesterol"
          },
          {
            "reference": "Observation/Observation-306092",
            "display": "Record_Triglycerides"
          },
          {
            "reference": "Observation/Observation-306093",
            "display": "Record_LDL"
          },
          {
            "reference": "Observation/Observation-306094",
            "display": "Record_HDL"
          }
        ]
      },
      "request": {
        "method": "PUT",
        "url": "http://localhost:8080/cqf-ruler/baseDstu3/DiagnosticReport/DiagnosticReport-306095"
      }
    },
    {
      "fullUrl": "http://localhost:8080/cqf-ruler/baseDstu3/Observation/Observation-306097",
      "resource": {
        "resourceType": "Observation",
        "id": "Observation-306097",
        "status": "final",
        "code": {
          "coding": [
            {
              "system": "http://loinc.org",
              "code": "8302-2",
              "display": "Height"
            }
          ]
        },
        "subject": {
          "reference": "Patient/Patient-1132",
          "display": "Alex Ramirez Gonzales"
        },
        "context": {
          "reference": "Encounter/Encounter-1169",
          "display": "Wellness Visit"
        },
        "effectiveDateTime": "2003-01-10T00:00:00-05:00",
        "performer": [
          {
            "reference": "Practitioner/Practitioner-2528",
            "display": "Tanya Sally Wheeler MD"
          }
        ],
        "valueQuantity": {
          "value": 181.7,
          "unit": "cm"
        }
      },
      "request": {
        "method": "PUT",
        "url": "http://localhost:8080/cqf-ruler/baseDstu3/Observation/Observation-306097"
      }
    },
    {
      "fullUrl": "http://localhost:8080/cqf-ruler/baseDstu3/Observation/Observation-306098",
      "resource": {
        "resourceType": "Observation",
        "id": "Observation-306098",
        "status": "final",
        "code": {
          "coding": [
            {
              "system": "http://loinc.org",
              "code": "29463-7",
              "display": "Weight"
            }
          ]
        },
        "subject": {
          "reference": "Patient/Patient-1132",
          "display": "Alex Ramirez Gonzales"
        },
        "context": {
          "reference": "Encounter/Encounter-1169",
          "display": "Wellness Visit"
        },
        "effectiveDateTime": "2003-01-10T00:00:00-05:00",
        "performer": [
          {
            "reference": "Practitioner/Practitioner-2528",
            "display": "Tanya Sally Wheeler MD"
          }
        ],
        "valueQuantity": {
          "value": 106.50490183056002,
          "unit": "kg"
        }
      },
      "request": {
        "method": "PUT",
        "url": "http://localhost:8080/cqf-ruler/baseDstu3/Observation/Observation-306098"
      }
    },
    {
      "fullUrl": "http://localhost:8080/cqf-ruler/baseDstu3/Observation/Observation-306099",
      "resource": {
        "resourceType": "Observation",
        "id": "Observation-306099",
        "status": "final",
        "code": {
          "coding": [
            {
              "system": "http://loinc.org",
              "code": "39156-5",
              "display": "BMI"
            }
          ]
        },
        "subject": {
          "reference": "Patient/Patient-1132",
          "display": "Alex Ramirez Gonzales"
        },
        "context": {
          "reference": "Encounter/Encounter-1169",
          "display": "Wellness Visit"
        },
        "effectiveDateTime": "2003-01-10T00:00:00-05:00",
        "performer": [
          {
            "reference": "Practitioner/Practitioner-2528",
            "display": "Tanya Sally Wheeler MD"
          }
        ],
        "valueQuantity": {
          "value": 32.25965672778556,
          "unit": "kg/m2"
        }
      },
      "request": {
        "method": "PUT",
        "url": "http://localhost:8080/cqf-ruler/baseDstu3/Observation/Observation-306099"
      }
    },
    {
      "fullUrl": "http://localhost:8080/cqf-ruler/baseDstu3/Observation/Observation-306100",
      "resource": {
        "resourceType": "Observation",
        "id": "Observation-306100",
        "status": "final",
        "code": {
          "coding": [
            {
              "system": "http://loinc.org",
              "code": "8310-5",
              "display": "Temperature"
            }
          ]
        },
        "subject": {
          "reference": "Patient/Patient-1132",
          "display": "Alex Ramirez Gonzales"
        },
        "context": {
          "reference": "Encounter/Encounter-1169",
          "display": "Wellness Visit"
        },
        "effectiveDateTime": "2003-01-10T00:00:00-05:00",
        "performer": [
          {
            "reference": "Practitioner/Practitioner-2528",
            "display": "Tanya Sally Wheeler MD"
          }
        ],
        "valueQuantity": {
          "value": 37.0,
          "unit": "C"
        }
      },
      "request": {
        "method": "PUT",
        "url": "http://localhost:8080/cqf-ruler/baseDstu3/Observation/Observation-306100"
      }
    },
    {
      "fullUrl": "http://localhost:8080/cqf-ruler/baseDstu3/Observation/Observation-306101",
      "resource": {
        "resourceType": "Observation",
        "id": "Observation-306101",
        "status": "final",
        "code": {
          "coding": [
            {
              "system": "http://loinc.org",
              "code": "8459-0",
              "display": "Systolic Blood Pressure"
            }
          ]
        },
        "subject": {
          "reference": "Patient/Patient-1132",
          "display": "Alex Ramirez Gonzales"
        },
        "context": {
          "reference": "Encounter/Encounter-1169",
          "display": "Wellness Visit"
        },
        "effectiveDateTime": "2003-01-10T00:00:00-05:00",
        "performer": [
          {
            "reference": "Practitioner/Practitioner-2528",
            "display": "Tanya Sally Wheeler MD"
          }
        ],
        "valueQuantity": {
          "value": 151.32116010588538,
          "unit": "mmHg"
        }
      },
      "request": {
        "method": "PUT",
        "url": "http://localhost:8080/cqf-ruler/baseDstu3/Observation/Observation-306101"
      }
    },
    {
      "fullUrl": "http://localhost:8080/cqf-ruler/baseDstu3/Observation/Observation-306102",
      "resource": {
        "resourceType": "Observation",
        "id": "Observation-306102",
        "status": "final",
        "code": {
          "coding": [
            {
              "system": "http://loinc.org",
              "code": "8453-3",
              "display": "Diastolic Blood Pressure"
            }
          ]
        },
        "subject": {
          "reference": "Patient/Patient-1132",
          "display": "Alex Ramirez Gonzales"
        },
        "context": {
          "reference": "Encounter/Encounter-1169",
          "display": "Wellness Visit"
        },
        "effectiveDateTime": "2003-01-10T00:00:00-05:00",
        "performer": [
          {
            "reference": "Practitioner/Practitioner-2528",
            "display": "Tanya Sally Wheeler MD"
          }
        ],
        "valueQuantity": {
          "value": 102.60953527264128,
          "unit": "mmHg"
        }
      },
      "request": {
        "method": "PUT",
        "url": "http://localhost:8080/cqf-ruler/baseDstu3/Observation/Observation-306102"
      }
    },
    {
      "fullUrl": "http://localhost:8080/cqf-ruler/baseDstu3/DiagnosticReport/DiagnosticReport-306096",
      "resource": {
        "resourceType": "DiagnosticReport",
        "id": "DiagnosticReport-306096",
        "status": "final",
        "code": {
          "coding": [
            {
              "system": "http://loinc.org",
              "code": "8716-3",
              "display": "Vital Signs Panel"
            }
          ]
        },
        "subject": {
          "reference": "Patient/Patient-1132",
          "display": "Alex Ramirez Gonzales"
        },
        "context": {
          "reference": "Encounter/Encounter-1169",
          "display": "Wellness Visit"
        },
        "effectivePeriod": {
          "start": "2003-01-10T00:00:00-05:00",
          "end": "2003-01-10T00:00:00-05:00"
        },
        "issued": "2003-01-10T00:00:00.000-05:00",
        "result": [
          {
            "reference": "Observation/Observation-306097",
            "display": "Height"
          },
          {
            "reference": "Observation/Observation-306098",
            "display": "Weight"
          },
          {
            "reference": "Observation/Observation-306099",
            "display": "BMI"
          },
          {
            "reference": "Observation/Observation-306100",
            "display": "Temperature"
          },
          {
            "reference": "Observation/Observation-306101",
            "display": "Systolic Blood Pressure"
          },
          {
            "reference": "Observation/Observation-306102",
            "display": "Diastolic Blood Pressure"
          }
        ]
      },
      "request": {
        "method": "PUT",
        "url": "http://localhost:8080/cqf-ruler/baseDstu3/DiagnosticReport/DiagnosticReport-306096"
      }
    }
  ]
}